; (content of file Y:\Sam\Apurva-07-20-2022\puck4\ML_20220718_34_SJD_0_LaB6-2min.raw)
_FILEVERSION = 3
_SAMPLE = ML_20220718_34_SJD_0_LaB6-2min
_+SAMPLE = 
_SITE = USA
_USER = Administrator
_GONIOMETER_CODE = 20
; Goniometer : D8 theta/2theta, stage : Unknown
_ATTACHMENTS_CODE = 0
_GONIOMETER_RADIUS = 200.5
_FIXED_DIVSLIT = 0.6
_FIXED_SAMPLESLIT = 0
_SOLLER_SLITS = 2
_FIXED_DETSLIT = 9.55
_MONOCHROMATOR = 0
; Incident beam monochromator : None
_SOLLER_SLITS_2 = N
_THIN_FILM = N
_BETA_FILTER = Y
_FIXED_ANTISLIT = 5.89
_ANALYZER_CODE = 0
; Received beam analyzer : None
_DATEMEASURED = "26-Jul-2022 09:04:03"
_WL_UNIT = A
_WL1 = 1.5406
_WL2 = 1.54439
_WL3 = 1.39222
_WLRATIO = 0.5
_ANODE = Cu
_V4_INF_CREATOR = XRDWizard
_V4_INF_CREATOR_VERSION = V2.9.0.22
_V4_INF_WIZARD_VERSION = V2.9.0.22
_V4_INF_WIZARD_ADDINS = V2.9.0.22
_V4_INF_WIZARD_DOCTYPE = XRD
_V4_INF_OSUSER = McQueenLab
_V4_INF_USER = Administrator
_V4_INF_SITE = USA
_V4_INF_SAMPLEID = ML_20220718_34_SJD_0_LaB6-2min

; Data for range 1
_DRIVE = COUPLED
_STEPTIME = 5.64
_STEPSIZE = 0.0185756
_STEPMODE = C
_START = 5
_THETA = 2.5
_2THETA = 5
_KHI = 0
_PHI = 0
_X = 0
_Y = 0
_Z = 0
_DETECTOR = 5
; Detector type : Unknown
_DETECTORSLIT = unkn
_AUX1 = 0
_AUX2 = 0
_AUX3 = 0
_TIMESTARTED = 15
_TEMP_RATE = -1
_TEMP_DELAY = -1
_KV = 40
_MA = 40
_RANGE_WL = 1.5406
_3DPLANE = 0
_V4_ADDITIONALDETECTOR = 257
_V4_PSD2THETA = 3.4228
_V4_PSDCHANNEL1 = 0
_V4_PSDAPERTURE = 12.68
_V4_PSDTYPE = 5
_V4_PSDFIXED = 0
_V4_COUNTERS_MASK = 4096
_V4_DRIVES_MASK = 0
_V4_ENCODERS_MASK = 0
_2THETACOUNTS = 1
; 2THETA  PSD
   5.0000        124
   5.0186        109
   5.0372        141
   5.0557        123
   5.0743        123
   5.0929        111
   5.1115        128
   5.1300        126
   5.1486        131
   5.1672        125
   5.1858        128
   5.2043        133
   5.2229        124
   5.2415        109
   5.2601        130
   5.2786        113
   5.2972        104
   5.3158        129
   5.3344        118
   5.3529        114
   5.3715        101
   5.3901        109
   5.4087         98
   5.4272        108
   5.4458        102
   5.4644        121
   5.4830        122
   5.5015        119
   5.5201        130
   5.5387        101
   5.5573        108
   5.5758        103
   5.5944        118
   5.6130        114
   5.6316         96
   5.6501        116
   5.6687        105
   5.6873         85
   5.7059        108
   5.7244         92
   5.7430        111
   5.7616        110
   5.7802        116
   5.7988        116
   5.8173         95
   5.8359        114
   5.8545        121
   5.8731         93
   5.8916         88
   5.9102         82
   5.9288         96
   5.9474        107
   5.9659         92
   5.9845         99
   6.0031         96
   6.0217         95
   6.0402         95
   6.0588         84
   6.0774         95
   6.0960        100
   6.1145         90
   6.1331         91
   6.1517         94
   6.1703         84
   6.1888         89
   6.2074        106
   6.2260         84
   6.2446         90
   6.2631         88
   6.2817         98
   6.3003         78
   6.3189         99
   6.3374         90
   6.3560         71
   6.3746        106
   6.3932        102
   6.4117         78
   6.4303         82
   6.4489         89
   6.4675         80
   6.4860         92
   6.5046         94
   6.5232         84
   6.5418         89
   6.5604         94
   6.5789         76
   6.5975         86
   6.6161         79
   6.6347         83
   6.6532         68
   6.6718         88
   6.6904         83
   6.7090         94
   6.7275         81
   6.7461         85
   6.7647         74
   6.7833         91
   6.8018         90
   6.8204         82
   6.8390         58
   6.8576         97
   6.8761         87
   6.8947         95
   6.9133         90
   6.9319         78
   6.9504         88
   6.9690         71
   6.9876         76
   7.0062         72
   7.0247         86
   7.0433         94
   7.0619         81
   7.0805         98
   7.0990         72
   7.1176         91
   7.1362         80
   7.1548         88
   7.1733         91
   7.1919         66
   7.2105         77
   7.2291         81
   7.2476         80
   7.2662         84
   7.2848         86
   7.3034         73
   7.3220         64
   7.3405         69
   7.3591         76
   7.3777         69
   7.3963         91
   7.4148         92
   7.4334         76
   7.4520         93
   7.4706         88
   7.4891         88
   7.5077         95
   7.5263         84
   7.5449         76
   7.5634        101
   7.5820         87
   7.6006         94
   7.6192         88
   7.6377         72
   7.6563        105
   7.6749         82
   7.6935         87
   7.7120         86
   7.7306         81
   7.7492        104
   7.7678         77
   7.7863         90
   7.8049         81
   7.8235         79
   7.8421         81
   7.8606         86
   7.8792         97
   7.8978         91
   7.9164         82
   7.9349         90
   7.9535        103
   7.9721         86
   7.9907         89
   8.0092         90
   8.0278        106
   8.0464        108
   8.0650        103
   8.0835        120
   8.1021         97
   8.1207         89
   8.1393         75
   8.1579         94
   8.1764        103
   8.1950         90
   8.2136         86
   8.2322        107
   8.2507        107
   8.2693        106
   8.2879         93
   8.3065        110
   8.3250        108
   8.3436         73
   8.3622        122
   8.3808         94
   8.3993         88
   8.4179        101
   8.4365        122
   8.4551         86
   8.4736         93
   8.4922         94
   8.5108        101
   8.5294         88
   8.5479         97
   8.5665         98
   8.5851        112
   8.6037        116
   8.6222        105
   8.6408         98
   8.6594         96
   8.6780         92
   8.6965         98
   8.7151        108
   8.7337         88
   8.7523         97
   8.7708        105
   8.7894        106
   8.8080         91
   8.8266        113
   8.8451        111
   8.8637         77
   8.8823        104
   8.9009        102
   8.9195        125
   8.9380        112
   8.9566        113
   8.9752         99
   8.9938         99
   9.0123         98
   9.0309        113
   9.0495         85
   9.0681         94
   9.0866         94
   9.1052        108
   9.1238        104
   9.1424         97
   9.1609         99
   9.1795        109
   9.1981        110
   9.2167        110
   9.2352        124
   9.2538        109
   9.2724        120
   9.2910        113
   9.3095        130
   9.3281        105
   9.3467        114
   9.3653         86
   9.3838         97
   9.4024        112
   9.4210        101
   9.4396        122
   9.4581        119
   9.4767         92
   9.4953        114
   9.5139         99
   9.5324        120
   9.5510        119
   9.5696        112
   9.5882        109
   9.6067        113
   9.6253        115
   9.6439        111
   9.6625         97
   9.6811        104
   9.6996        121
   9.7182         89
   9.7368        114
   9.7554        115
   9.7739        116
   9.7925        111
   9.8111        120
   9.8297        101
   9.8482        119
   9.8668        112
   9.8854        104
   9.9040        131
   9.9225        118
   9.9411        113
   9.9597        128
   9.9783        109
   9.9968        142
  10.0154         98
  10.0340        117
  10.0526        109
  10.0711        139
  10.0897        109
  10.1083        126
  10.1269        124
  10.1454        119
  10.1640        117
  10.1826        120
  10.2012        116
  10.2197        125
  10.2383        118
  10.2569        108
  10.2755        113
  10.2940        109
  10.3126        104
  10.3312         93
  10.3498        142
  10.3683        107
  10.3869        117
  10.4055        121
  10.4241         96
  10.4427         99
  10.4612        105
  10.4798        131
  10.4984        117
  10.5170        129
  10.5355        126
  10.5541        134
  10.5727        138
  10.5913        130
  10.6098        109
  10.6284        112
  10.6470        111
  10.6656        137
  10.6841        140
  10.7027        146
  10.7213        116
  10.7399        114
  10.7584        120
  10.7770        120
  10.7956        135
  10.8142        119
  10.8327        123
  10.8513        118
  10.8699        128
  10.8885        106
  10.9070        101
  10.9256        117
  10.9442        119
  10.9628        115
  10.9813        106
  10.9999        119
  11.0185        122
  11.0371        112
  11.0556        112
  11.0742        126
  11.0928        123
  11.1114        121
  11.1299        124
  11.1485         94
  11.1671        113
  11.1857        109
  11.2043        129
  11.2228        114
  11.2414        111
  11.2600        101
  11.2786        127
  11.2971         97
  11.3157        110
  11.3343        105
  11.3529        112
  11.3714        125
  11.3900        124
  11.4086        122
  11.4272        116
  11.4457        122
  11.4643        125
  11.4829        142
  11.5015        129
  11.5200        141
  11.5386        120
  11.5572        119
  11.5758        138
  11.5943        128
  11.6129        102
  11.6315        115
  11.6501        132
  11.6686        118
  11.6872        103
  11.7058        116
  11.7244        109
  11.7429        114
  11.7615        121
  11.7801        110
  11.7987        117
  11.8172        100
  11.8358        119
  11.8544        114
  11.8730        107
  11.8915        122
  11.9101        117
  11.9287        106
  11.9473        117
  11.9659        101
  11.9844        103
  12.0030        126
  12.0216        104
  12.0402        102
  12.0587        125
  12.0773        125
  12.0959        125
  12.1145         92
  12.1330        117
  12.1516        122
  12.1702        111
  12.1888        125
  12.2073        103
  12.2259        108
  12.2445        115
  12.2631        111
  12.2816        115
  12.3002        102
  12.3188        114
  12.3374        100
  12.3559        130
  12.3745        103
  12.3931         99
  12.4117         99
  12.4302        105
  12.4488         91
  12.4674        111
  12.4860        103
  12.5045         99
  12.5231        109
  12.5417        100
  12.5603        122
  12.5788        121
  12.5974        104
  12.6160        110
  12.6346         96
  12.6531         90
  12.6717         93
  12.6903        102
  12.7089        113
  12.7274        109
  12.7460        110
  12.7646         97
  12.7832         92
  12.8018        119
  12.8203         96
  12.8389         91
  12.8575         91
  12.8761        101
  12.8946        104
  12.9132        123
  12.9318        106
  12.9504        105
  12.9689         89
  12.9875        101
  13.0061         90
  13.0247        102
  13.0432         97
  13.0618        102
  13.0804         99
  13.0990         85
  13.1175        103
  13.1361         98
  13.1547        110
  13.1733        109
  13.1918        111
  13.2104        112
  13.2290         92
  13.2476         84
  13.2661        111
  13.2847         96
  13.3033         92
  13.3219         98
  13.3404         86
  13.3590        111
  13.3776         97
  13.3962         95
  13.4147        104
  13.4333         86
  13.4519        106
  13.4705        105
  13.4890        103
  13.5076        100
  13.5262         87
  13.5448         95
  13.5634         79
  13.5819         85
  13.6005         98
  13.6191        107
  13.6377         96
  13.6562        112
  13.6748        102
  13.6934        110
  13.7120        104
  13.7305         95
  13.7491        101
  13.7677        101
  13.7863        101
  13.8048         99
  13.8234        109
  13.8420         88
  13.8606         97
  13.8791         76
  13.8977         84
  13.9163        103
  13.9349         86
  13.9534         91
  13.9720         82
  13.9906         78
  14.0092         81
  14.0277        110
  14.0463        103
  14.0649        103
  14.0835         87
  14.1020         93
  14.1206         96
  14.1392         85
  14.1578        106
  14.1763         84
  14.1949         75
  14.2135         79
  14.2321         92
  14.2506         87
  14.2692         96
  14.2878         84
  14.3064         70
  14.3250         81
  14.3435         76
  14.3621         67
  14.3807         96
  14.3993         92
  14.4178         95
  14.4364         79
  14.4550         86
  14.4736        103
  14.4921         98
  14.5107         80
  14.5293         83
  14.5479         68
  14.5664         97
  14.5850         87
  14.6036         98
  14.6222         84
  14.6407         66
  14.6593         82
  14.6779        104
  14.6965         78
  14.7150         77
  14.7336         92
  14.7522         91
  14.7708         81
  14.7893         74
  14.8079         88
  14.8265         77
  14.8451         94
  14.8636         73
  14.8822         83
  14.9008         79
  14.9194         87
  14.9379         82
  14.9565         96
  14.9751         81
  14.9937         90
  15.0122         99
  15.0308         69
  15.0494         90
  15.0680         72
  15.0866         72
  15.1051         93
  15.1237         87
  15.1423         84
  15.1609         89
  15.1794         99
  15.1980        107
  15.2166         97
  15.2352         85
  15.2537         92
  15.2723         85
  15.2909         89
  15.3095         83
  15.3280         77
  15.3466         94
  15.3652         76
  15.3838        100
  15.4023         80
  15.4209         83
  15.4395         87
  15.4581         76
  15.4766         79
  15.4952         71
  15.5138         99
  15.5324         79
  15.5509         72
  15.5695         67
  15.5881         84
  15.6067         93
  15.6252        101
  15.6438         86
  15.6624         85
  15.6810         89
  15.6995         86
  15.7181         79
  15.7367         79
  15.7553         69
  15.7738         80
  15.7924         93
  15.8110         78
  15.8296         86
  15.8482         82
  15.8667         81
  15.8853         85
  15.9039         99
  15.9225         90
  15.9410         84
  15.9596         71
  15.9782         80
  15.9968         72
  16.0153         80
  16.0339         78
  16.0525         93
  16.0711         68
  16.0896         92
  16.1082         88
  16.1268         95
  16.1454         94
  16.1639         92
  16.1825         75
  16.2011        102
  16.2197         80
  16.2382         75
  16.2568         86
  16.2754         62
  16.2940         72
  16.3125         86
  16.3311         77
  16.3497         87
  16.3683         77
  16.3868         86
  16.4054         93
  16.4240         81
  16.4426         75
  16.4611         88
  16.4797         63
  16.4983         77
  16.5169         77
  16.5354         69
  16.5540         79
  16.5726         72
  16.5912         67
  16.6097         69
  16.6283         83
  16.6469         86
  16.6655         72
  16.6841         79
  16.7026         86
  16.7212         75
  16.7398         80
  16.7584         73
  16.7769         80
  16.7955         75
  16.8141         69
  16.8327         92
  16.8512         77
  16.8698         69
  16.8884         69
  16.9070         70
  16.9255         83
  16.9441         87
  16.9627         86
  16.9813         82
  16.9998         82
  17.0184         76
  17.0370         74
  17.0556         86
  17.0741         89
  17.0927         96
  17.1113         88
  17.1299         76
  17.1484         74
  17.1670         82
  17.1856         90
  17.2042         80
  17.2227         84
  17.2413         98
  17.2599         88
  17.2785         77
  17.2970         76
  17.3156         73
  17.3342         73
  17.3528         91
  17.3713         87
  17.3899         89
  17.4085         68
  17.4271         86
  17.4457         63
  17.4642         85
  17.4828         78
  17.5014         88
  17.5200         74
  17.5385         89
  17.5571         86
  17.5757         64
  17.5943         81
  17.6128         72
  17.6314         88
  17.6500         85
  17.6686         88
  17.6871         90
  17.7057         72
  17.7243         90
  17.7429         82
  17.7614         80
  17.7800         86
  17.7986         78
  17.8172         69
  17.8357         63
  17.8543         73
  17.8729         83
  17.8915         90
  17.9100         91
  17.9286         94
  17.9472         85
  17.9658         96
  17.9843         89
  18.0029         87
  18.0215         81
  18.0401         84
  18.0586         72
  18.0772         78
  18.0958         78
  18.1144         73
  18.1329         92
  18.1515         88
  18.1701         87
  18.1887         57
  18.2073         88
  18.2258         98
  18.2444         88
  18.2630         85
  18.2816         84
  18.3001         80
  18.3187         86
  18.3373         95
  18.3559         69
  18.3744         94
  18.3930         76
  18.4116         69
  18.4302         88
  18.4487         86
  18.4673         77
  18.4859         70
  18.5045         72
  18.5230         74
  18.5416         84
  18.5602         80
  18.5788         92
  18.5973         81
  18.6159         81
  18.6345         83
  18.6531         85
  18.6716         94
  18.6902         73
  18.7088         83
  18.7274         69
  18.7459         88
  18.7645         83
  18.7831         91
  18.8017         67
  18.8202         82
  18.8388         78
  18.8574         91
  18.8760        103
  18.8945         78
  18.9131         66
  18.9317         79
  18.9503         93
  18.9689        103
  18.9874         88
  19.0060         91
  19.0246         90
  19.0432         79
  19.0617         87
  19.0803         59
  19.0989         77
  19.1175         93
  19.1360         83
  19.1546         76
  19.1732         82
  19.1918         74
  19.2103         91
  19.2289         93
  19.2475         78
  19.2661         78
  19.2846         95
  19.3032         69
  19.3218         93
  19.3404         89
  19.3589         83
  19.3775         86
  19.3961         96
  19.4147         85
  19.4332         72
  19.4518         95
  19.4704         94
  19.4890         83
  19.5075         82
  19.5261         82
  19.5447        109
  19.5633         79
  19.5818         66
  19.6004         95
  19.6190         86
  19.6376         79
  19.6561         71
  19.6747         84
  19.6933         70
  19.7119         89
  19.7305         80
  19.7490         90
  19.7676         86
  19.7862         81
  19.8048         89
  19.8233         79
  19.8419         93
  19.8605         74
  19.8791        103
  19.8976         88
  19.9162         90
  19.9348         96
  19.9534         87
  19.9719         74
  19.9905        112
  20.0091         98
  20.0277         91
  20.0462         81
  20.0648        100
  20.0834         84
  20.1020         80
  20.1205         93
  20.1391         93
  20.1577         64
  20.1763         88
  20.1948        108
  20.2134        108
  20.2320         91
  20.2506         85
  20.2691         89
  20.2877         98
  20.3063         90
  20.3249         83
  20.3434         95
  20.3620         87
  20.3806         99
  20.3992         78
  20.4177         98
  20.4363         83
  20.4549         97
  20.4735         89
  20.4921         79
  20.5106         87
  20.5292        105
  20.5478         84
  20.5664         93
  20.5849         88
  20.6035        103
  20.6221         86
  20.6407         86
  20.6592         73
  20.6778         82
  20.6964         82
  20.7150         80
  20.7335         87
  20.7521         84
  20.7707         97
  20.7893         74
  20.8078         88
  20.8264         88
  20.8450         92
  20.8636         96
  20.8821        115
  20.9007         92
  20.9193         91
  20.9379         92
  20.9564         91
  20.9750         97
  20.9936        103
  21.0122         99
  21.0307         89
  21.0493         98
  21.0679         94
  21.0865         94
  21.1050        109
  21.1236         98
  21.1422         95
  21.1608        100
  21.1793        119
  21.1979        145
  21.2165        126
  21.2351        181
  21.2537        151
  21.2722        161
  21.2908        127
  21.3094        146
  21.3280        178
  21.3465        258
  21.3651        236
  21.3837        207
  21.4023        193
  21.4208        151
  21.4394        144
  21.4580        114
  21.4766         87
  21.4951         98
  21.5137         77
  21.5323        112
  21.5509        122
  21.5694         93
  21.5880         89
  21.6066        102
  21.6252         90
  21.6437         87
  21.6623         89
  21.6809         86
  21.6995        103
  21.7180         91
  21.7366         84
  21.7552         86
  21.7738        119
  21.7923         92
  21.8109         92
  21.8295        103
  21.8481        100
  21.8666         97
  21.8852         95
  21.9038         92
  21.9224         99
  21.9409        117
  21.9595         84
  21.9781         87
  21.9967        101
  22.0152        111
  22.0338        102
  22.0524        104
  22.0710         97
  22.0896         91
  22.1081        100
  22.1267         97
  22.1453        114
  22.1639        103
  22.1824        117
  22.2010        106
  22.2196        106
  22.2382         95
  22.2567         76
  22.2753        109
  22.2939        111
  22.3125         93
  22.3310        100
  22.3496         95
  22.3682         97
  22.3868        101
  22.4053         98
  22.4239         89
  22.4425        108
  22.4611         85
  22.4796         96
  22.4982        100
  22.5168         92
  22.5354         87
  22.5539         99
  22.5725        104
  22.5911        101
  22.6097        112
  22.6282         97
  22.6468        109
  22.6654        102
  22.6840         96
  22.7025         97
  22.7211         93
  22.7397        105
  22.7583        105
  22.7768         95
  22.7954        101
  22.8140        125
  22.8326        104
  22.8512         95
  22.8697        106
  22.8883        107
  22.9069         86
  22.9255         84
  22.9440        110
  22.9626         94
  22.9812         96
  22.9998        101
  23.0183         84
  23.0369        111
  23.0555        101
  23.0741        118
  23.0926         95
  23.1112         89
  23.1298        110
  23.1484        102
  23.1669        107
  23.1855        113
  23.2041         75
  23.2227        115
  23.2412        110
  23.2598         99
  23.2784        109
  23.2970        117
  23.3155         90
  23.3341        105
  23.3527         94
  23.3713        101
  23.3898         87
  23.4084        106
  23.4270         98
  23.4456         95
  23.4641         77
  23.4827         97
  23.5013        105
  23.5199         86
  23.5384        118
  23.5570        113
  23.5756        117
  23.5942        101
  23.6128         95
  23.6313        112
  23.6499         83
  23.6685        116
  23.6871         86
  23.7056         92
  23.7242         90
  23.7428         95
  23.7614        117
  23.7799         85
  23.7985        100
  23.8171         94
  23.8357        113
  23.8542        107
  23.8728         92
  23.8914         97
  23.9100        104
  23.9285        100
  23.9471         85
  23.9657        107
  23.9843         89
  24.0028         98
  24.0214         97
  24.0400         96
  24.0586        113
  24.0771        100
  24.0957        103
  24.1143        100
  24.1329        111
  24.1514        121
  24.1700         87
  24.1886        106
  24.2072        106
  24.2257        102
  24.2443         98
  24.2629        105
  24.2815        113
  24.3000         96
  24.3186        108
  24.3372        107
  24.3558         85
  24.3744         97
  24.3929        115
  24.4115         92
  24.4301        112
  24.4487         95
  24.4672        112
  24.4858         92
  24.5044         95
  24.5230        116
  24.5415         81
  24.5601         84
  24.5787         99
  24.5973         95
  24.6158         95
  24.6344         93
  24.6530        105
  24.6716         93
  24.6901         98
  24.7087        101
  24.7273         91
  24.7459        106
  24.7644        103
  24.7830         86
  24.8016        101
  24.8202        106
  24.8387         96
  24.8573        107
  24.8759         95
  24.8945         78
  24.9130        110
  24.9316         90
  24.9502        108
  24.9688         87
  24.9873         95
  25.0059        118
  25.0245         99
  25.0431         87
  25.0616         97
  25.0802        104
  25.0988         98
  25.1174         98
  25.1360         99
  25.1545        116
  25.1731         98
  25.1917        101
  25.2103         80
  25.2288         90
  25.2474         85
  25.2660        104
  25.2846         85
  25.3031         98
  25.3217        103
  25.3403        101
  25.3589         79
  25.3774        112
  25.3960         95
  25.4146         90
  25.4332         87
  25.4517        105
  25.4703         74
  25.4889         89
  25.5075        102
  25.5260         93
  25.5446         97
  25.5632         76
  25.5818         92
  25.6003        103
  25.6189        101
  25.6375         90
  25.6561        104
  25.6746         86
  25.6932         99
  25.7118         95
  25.7304         92
  25.7489         82
  25.7675         88
  25.7861        106
  25.8047         92
  25.8232        107
  25.8418        100
  25.8604         95
  25.8790        103
  25.8976        107
  25.9161         96
  25.9347        107
  25.9533         95
  25.9719         77
  25.9904         99
  26.0090         73
  26.0276         87
  26.0462        103
  26.0647         86
  26.0833         79
  26.1019        109
  26.1205         99
  26.1390         99
  26.1576         96
  26.1762         95
  26.1948        106
  26.2133         93
  26.2319         96
  26.2505         95
  26.2691         88
  26.2876         74
  26.3062         95
  26.3248         87
  26.3434         88
  26.3619        106
  26.3805         91
  26.3991        110
  26.4177         93
  26.4362         81
  26.4548         95
  26.4734        112
  26.4920        101
  26.5105         92
  26.5291        100
  26.5477         98
  26.5663         98
  26.5848        114
  26.6034        101
  26.6220         96
  26.6406        106
  26.6591         80
  26.6777        101
  26.6963         93
  26.7149        109
  26.7335        103
  26.7520         64
  26.7706         94
  26.7892         86
  26.8078         87
  26.8263         92
  26.8449         80
  26.8635         94
  26.8821         96
  26.9006         84
  26.9192         89
  26.9378         98
  26.9564         85
  26.9749         92
  26.9935         93
  27.0121         96
  27.0307         85
  27.0492         86
  27.0678        100
  27.0864         97
  27.1050         84
  27.1235        104
  27.1421         84
  27.1607        103
  27.1793        113
  27.1978        102
  27.2164        132
  27.2350        131
  27.2536        128
  27.2721        113
  27.2907        107
  27.3093         95
  27.3279         83
  27.3464         99
  27.3650         98
  27.3836         84
  27.4022         96
  27.4207         85
  27.4393         68
  27.4579         72
  27.4765         94
  27.4951        104
  27.5136         93
  27.5322         79
  27.5508         97
  27.5694         92
  27.5879         92
  27.6065         95
  27.6251         90
  27.6437         93
  27.6622        106
  27.6808         93
  27.6994         71
  27.7180        101
  27.7365         85
  27.7551         99
  27.7737         95
  27.7923        115
  27.8108         83
  27.8294         90
  27.8480         98
  27.8666         93
  27.8851         93
  27.9037         91
  27.9223         81
  27.9409         95
  27.9594         67
  27.9780         82
  27.9966         76
  28.0152         74
  28.0337         68
  28.0523         85
  28.0709         74
  28.0895         99
  28.1080         98
  28.1266         96
  28.1452         93
  28.1638         73
  28.1823         98
  28.2009         93
  28.2195         71
  28.2381         73
  28.2567         74
  28.2752         78
  28.2938         86
  28.3124         86
  28.3310         86
  28.3495         97
  28.3681         73
  28.3867         72
  28.4053         82
  28.4238         74
  28.4424         77
  28.4610         97
  28.4796         80
  28.4981         70
  28.5167         83
  28.5353         60
  28.5539         72
  28.5724         97
  28.5910         96
  28.6096         72
  28.6282         86
  28.6467         84
  28.6653         84
  28.6839         67
  28.7025         83
  28.7210        108
  28.7396         84
  28.7582         89
  28.7768         89
  28.7953         84
  28.8139         67
  28.8325         84
  28.8511         94
  28.8696         70
  28.8882         83
  28.9068         82
  28.9254         95
  28.9439         83
  28.9625         76
  28.9811         83
  28.9997         79
  29.0183         82
  29.0368         88
  29.0554         78
  29.0740         93
  29.0926         77
  29.1111         69
  29.1297         84
  29.1483         86
  29.1669         73
  29.1854        105
  29.2040         80
  29.2226         90
  29.2412         81
  29.2597         77
  29.2783         64
  29.2969         81
  29.3155         80
  29.3340         74
  29.3526         69
  29.3712         94
  29.3898         93
  29.4083         90
  29.4269         67
  29.4455         81
  29.4641         78
  29.4826         71
  29.5012         70
  29.5198         83
  29.5384         94
  29.5569         73
  29.5755         72
  29.5941         85
  29.6127         67
  29.6312         75
  29.6498         59
  29.6684         76
  29.6870         97
  29.7055         56
  29.7241         81
  29.7427         70
  29.7613         76
  29.7799         84
  29.7984         78
  29.8170         91
  29.8356         79
  29.8542         64
  29.8727         71
  29.8913         79
  29.9099         83
  29.9285         82
  29.9470         81
  29.9656         67
  29.9842         75
  30.0028         61
  30.0213         76
  30.0399         89
  30.0585         88
  30.0771         72
  30.0956         92
  30.1142         73
  30.1328         75
  30.1514         75
  30.1699         80
  30.1885         88
  30.2071         83
  30.2257         82
  30.2442         91
  30.2628         81
  30.2814         72
  30.3000         80
  30.3185        112
  30.3371        103
  30.3557        113
  30.3743        159
  30.3928        178
  30.4114        143
  30.4300        115
  30.4486        136
  30.4671        143
  30.4857         97
  30.5043         96
  30.5229         98
  30.5415         92
  30.5600         74
  30.5786         74
  30.5972         92
  30.6158         66
  30.6343         70
  30.6529         74
  30.6715         82
  30.6901         72
  30.7086         78
  30.7272         68
  30.7458         70
  30.7644         71
  30.7829         66
  30.8015         72
  30.8201         74
  30.8387         70
  30.8572         72
  30.8758         68
  30.8944         78
  30.9130         81
  30.9315         76
  30.9501         70
  30.9687         76
  30.9873         71
  31.0058         83
  31.0244         79
  31.0430         93
  31.0616         68
  31.0801         64
  31.0987         73
  31.1173         79
  31.1359         73
  31.1544         76
  31.1730         55
  31.1916         68
  31.2102         60
  31.2287         70
  31.2473         68
  31.2659         75
  31.2845         66
  31.3030         73
  31.3216         72
  31.3402         66
  31.3588         66
  31.3774         64
  31.3959         71
  31.4145         64
  31.4331         75
  31.4517         58
  31.4702         94
  31.4888         65
  31.5074         73
  31.5260         82
  31.5445         69
  31.5631         60
  31.5817         79
  31.6003         77
  31.6188         65
  31.6374         71
  31.6560         62
  31.6746         77
  31.6931         63
  31.7117         61
  31.7303         73
  31.7489         68
  31.7674         62
  31.7860         57
  31.8046         67
  31.8232         66
  31.8417         58
  31.8603         71
  31.8789         57
  31.8975         59
  31.9160         64
  31.9346         63
  31.9532         63
  31.9718         59
  31.9903         55
  32.0089         57
  32.0275         61
  32.0461         75
  32.0646         64
  32.0832         68
  32.1018         66
  32.1204         68
  32.1390         68
  32.1575         67
  32.1761         63
  32.1947         63
  32.2133         62
  32.2318         63
  32.2504         73
  32.2690         71
  32.2876         67
  32.3061         75
  32.3247         68
  32.3433         53
  32.3619         75
  32.3804         67
  32.3990         83
  32.4176         74
  32.4362         78
  32.4547         70
  32.4733         69
  32.4919         82
  32.5105         72
  32.5290         67
  32.5476         70
  32.5662         52
  32.5848         75
  32.6033         70
  32.6219         73
  32.6405         53
  32.6591         68
  32.6776         84
  32.6962         55
  32.7148         67
  32.7334         73
  32.7519         60
  32.7705         56
  32.7891         79
  32.8077         67
  32.8262         60
  32.8448         54
  32.8634         63
  32.8820         65
  32.9006         67
  32.9191         59
  32.9377         78
  32.9563         50
  32.9749         65
  32.9934         74
  33.0120         55
  33.0306         63
  33.0492         66
  33.0677         60
  33.0863         73
  33.1049         68
  33.1235         80
  33.1420         70
  33.1606         68
  33.1792         54
  33.1978         68
  33.2163         56
  33.2349         64
  33.2535         67
  33.2721         58
  33.2906         57
  33.3092         73
  33.3278         60
  33.3464         58
  33.3649         75
  33.3835         65
  33.4021         65
  33.4207         54
  33.4392         69
  33.4578         60
  33.4764         56
  33.4950         62
  33.5135         70
  33.5321         54
  33.5507         66
  33.5693         49
  33.5878         61
  33.6064         58
  33.6250         57
  33.6436         44
  33.6622         51
  33.6807         55
  33.6993         67
  33.7179         49
  33.7365         71
  33.7550         63
  33.7736         42
  33.7922         47
  33.8108         65
  33.8293         61
  33.8479         51
  33.8665         50
  33.8851         59
  33.9036         67
  33.9222         60
  33.9408         62
  33.9594         62
  33.9779         53
  33.9965         71
  34.0151         50
  34.0337         43
  34.0522         62
  34.0708         51
  34.0894         70
  34.1080         58
  34.1265         46
  34.1451         64
  34.1637         51
  34.1823         47
  34.2008         52
  34.2194         50
  34.2380         51
  34.2566         69
  34.2751         48
  34.2937         49
  34.3123         53
  34.3309         54
  34.3494         50
  34.3680         58
  34.3866         64
  34.4052         46
  34.4238         56
  34.4423         46
  34.4609         67
  34.4795         56
  34.4981         44
  34.5166         70
  34.5352         66
  34.5538         54
  34.5724         55
  34.5909         56
  34.6095         55
  34.6281         48
  34.6467         68
  34.6652         70
  34.6838         61
  34.7024         74
  34.7210         68
  34.7395         77
  34.7581         78
  34.7767         92
  34.7953         69
  34.8138         60
  34.8324         57
  34.8510         62
  34.8696         69
  34.8881         74
  34.9067         75
  34.9253         48
  34.9439         66
  34.9624         60
  34.9810         39
  34.9996         63
  35.0182         52
  35.0367         53
  35.0553         46
  35.0739         48
  35.0925         49
  35.1110         51
  35.1296         41
  35.1482         60
  35.1668         62
  35.1854         45
  35.2039         46
  35.2225         54
  35.2411         53
  35.2597         39
  35.2782         50
  35.2968         50
  35.3154         47
  35.3340         55
  35.3525         44
  35.3711         55
  35.3897         53
  35.4083         58
  35.4268         62
  35.4454         51
  35.4640         46
  35.4826         59
  35.5011         56
  35.5197         48
  35.5383         51
  35.5569         64
  35.5754         47
  35.5940         46
  35.6126         55
  35.6312         44
  35.6497         40
  35.6683         52
  35.6869         60
  35.7055         44
  35.7240         52
  35.7426         46
  35.7612         52
  35.7798         53
  35.7983         44
  35.8169         52
  35.8355         56
  35.8541         42
  35.8726         48
  35.8912         51
  35.9098         55
  35.9284         46
  35.9469         47
  35.9655         41
  35.9841         41
  36.0027         54
  36.0213         49
  36.0398         39
  36.0584         60
  36.0770         62
  36.0956         43
  36.1141         52
  36.1327         50
  36.1513         50
  36.1699         43
  36.1884         54
  36.2070         44
  36.2256         51
  36.2442         58
  36.2627         38
  36.2813         43
  36.2999         42
  36.3185         43
  36.3370         38
  36.3556         47
  36.3742         43
  36.3928         50
  36.4113         53
  36.4299         46
  36.4485         43
  36.4671         54
  36.4856         71
  36.5042         40
  36.5228         55
  36.5414         34
  36.5599         45
  36.5785         60
  36.5971         42
  36.6157         48
  36.6342         35
  36.6528         38
  36.6714         42
  36.6900         48
  36.7085         38
  36.7271         31
  36.7457         53
  36.7643         56
  36.7829         54
  36.8014         58
  36.8200         44
  36.8386         51
  36.8572         46
  36.8757         43
  36.8943         41
  36.9129         48
  36.9315         41
  36.9500         47
  36.9686         49
  36.9872         54
  37.0058         39
  37.0243         59
  37.0429         37
  37.0615         42
  37.0801         43
  37.0986         36
  37.1172         52
  37.1358         54
  37.1544         51
  37.1729         36
  37.1915         45
  37.2101         38
  37.2287         38
  37.2472         38
  37.2658         38
  37.2844         55
  37.3030         48
  37.3215         41
  37.3401         56
  37.3587         53
  37.3773         46
  37.3958         50
  37.4144         66
  37.4330         75
  37.4516         88
  37.4701         62
  37.4887         59
  37.5073         56
  37.5259         66
  37.5445         76
  37.5630         61
  37.5816         44
  37.6002         51
  37.6188         39
  37.6373         43
  37.6559         36
  37.6745         50
  37.6931         50
  37.7116         47
  37.7302         44
  37.7488         50
  37.7674         48
  37.7859         42
  37.8045         44
  37.8231         41
  37.8417         32
  37.8602         42
  37.8788         42
  37.8974         42
  37.9160         35
  37.9345         44
  37.9531         35
  37.9717         40
  37.9903         50
  38.0088         44
  38.0274         50
  38.0460         40
  38.0646         40
  38.0831         46
  38.1017         42
  38.1203         41
  38.1389         36
  38.1574         48
  38.1760         33
  38.1946         29
  38.2132         41
  38.2317         41
  38.2503         41
  38.2689         39
  38.2875         32
  38.3061         43
  38.3246         53
  38.3432         48
  38.3618         51
  38.3804         40
  38.3989         51
  38.4175         34
  38.4361         50
  38.4547         44
  38.4732         46
  38.4918         32
  38.5104         38
  38.5290         43
  38.5475         46
  38.5661         33
  38.5847         45
  38.6033         41
  38.6218         37
  38.6404         34
  38.6590         42
  38.6776         40
  38.6961         39
  38.7147         44
  38.7333         45
  38.7519         38
  38.7704         43
  38.7890         48
  38.8076         34
  38.8262         35
  38.8447         41
  38.8633         49
  38.8819         45
  38.9005         48
  38.9190         58
  38.9376         42
  38.9562         38
  38.9748         29
  38.9933         36
  39.0119         50
  39.0305         44
  39.0491         46
  39.0677         40
  39.0862         40
  39.1048         38
  39.1234         51
  39.1420         40
  39.1605         44
  39.1791         52
  39.1977         40
  39.2163         27
  39.2348         44
  39.2534         53
  39.2720         39
  39.2906         36
  39.3091         31
  39.3277         36
  39.3463         40
  39.3649         37
  39.3834         34
  39.4020         34
  39.4206         38
  39.4392         50
  39.4577         32
  39.4763         46
  39.4949         37
  39.5135         43
  39.5320         39
  39.5506         29
  39.5692         35
  39.5878         31
  39.6063         51
  39.6249         43
  39.6435         46
  39.6621         47
  39.6806         34
  39.6992         39
  39.7178         46
  39.7364         33
  39.7549         49
  39.7735         36
  39.7921         41
  39.8107         25
  39.8293         36
  39.8478         40
  39.8664         40
  39.8850         39
  39.9036         42
  39.9221         38
  39.9407         36
  39.9593         56
  39.9779         41
  39.9964         39
  40.0150         40
  40.0336         28
  40.0522         43
  40.0707         34
  40.0893         38
  40.1079         45
  40.1265         40
  40.1450         41
  40.1636         37
  40.1822         30
  40.2008         41
  40.2193         36
  40.2379         51
  40.2565         34
  40.2751         45
  40.2936         35
  40.3122         41
  40.3308         22
  40.3494         28
  40.3679         40
  40.3865         45
  40.4051         36
  40.4237         39
  40.4422         47
  40.4608         39
  40.4794         38
  40.4980         47
  40.5165         38
  40.5351         25
  40.5537         38
  40.5723         44
  40.5908         36
  40.6094         33
  40.6280         41
  40.6466         32
  40.6652         40
  40.6837         45
  40.7023         41
  40.7209         38
  40.7395         39
  40.7580         42
  40.7766         35
  40.7952         39
  40.8138         40
  40.8323         38
  40.8509         36
  40.8695         41
  40.8881         36
  40.9066         47
  40.9252         43
  40.9438         47
  40.9624         34
  40.9809         51
  40.9995         57
  41.0181         35
  41.0367         46
  41.0552         32
  41.0738         40
  41.0924         35
  41.1110         36
  41.1295         40
  41.1481         43
  41.1667         36
  41.1853         39
  41.2038         38
  41.2224         50
  41.2410         42
  41.2596         37
  41.2781         46
  41.2967         41
  41.3153         35
  41.3339         35
  41.3524         32
  41.3710         49
  41.3896         37
  41.4082         44
  41.4268         36
  41.4453         36
  41.4639         36
  41.4825         28
  41.5011         48
  41.5196         41
  41.5382         37
  41.5568         34
  41.5754         34
  41.5939         27
  41.6125         32
  41.6311         28
  41.6497         39
  41.6682         32
  41.6868         38
  41.7054         41
  41.7240         34
  41.7425         40
  41.7611         40
  41.7797         38
  41.7983         43
  41.8168         33
  41.8354         31
  41.8540         39
  41.8726         40
  41.8911         44
  41.9097         35
  41.9283         39
  41.9469         33
  41.9654         29
  41.9840         40
  42.0026         34
  42.0212         37
  42.0397         34
  42.0583         39
  42.0769         30
  42.0955         34
  42.1140         35
  42.1326         43
  42.1512         39
  42.1698         45
  42.1884         57
  42.2069         44
  42.2255         33
  42.2441         42
  42.2627         33
  42.2812         39
  42.2998         40
  42.3184         43
  42.3370         32
  42.3555         34
  42.3741         42
  42.3927         36
  42.4113         25
  42.4298         42
  42.4484         38
  42.4670         39
  42.4856         26
  42.5041         37
  42.5227         48
  42.5413         37
  42.5599         27
  42.5784         41
  42.5970         24
  42.6156         31
  42.6342         37
  42.6527         36
  42.6713         36
  42.6899         48
  42.7085         37
  42.7270         37
  42.7456         34
  42.7642         42
  42.7828         47
  42.8013         36
  42.8199         43
  42.8385         36
  42.8571         40
  42.8756         32
  42.8942         49
  42.9128         25
  42.9314         36
  42.9500         23
  42.9685         27
  42.9871         44
  43.0057         22
  43.0243         33
  43.0428         35
  43.0614         48
  43.0800         38
  43.0986         37
  43.1171         42
  43.1357         27
  43.1543         36
  43.1729         56
  43.1914         40
  43.2100         39
  43.2286         36
  43.2472         53
  43.2657         47
  43.2843         41
  43.3029         27
  43.3215         46
  43.3400         39
  43.3586         40
  43.3772         40
  43.3958         50
  43.4143         48
  43.4329         45
  43.4515         37
  43.4701         48
  43.4886         61
  43.5072         75
  43.5258         59
  43.5444         44
  43.5629         44
  43.5815         51
  43.6001         48
  43.6187         50
  43.6372         37
  43.6558         47
  43.6744         44
  43.6930         39
  43.7116         25
  43.7301         38
  43.7487         44
  43.7673         46
  43.7859         32
  43.8044         34
  43.8230         23
  43.8416         35
  43.8602         29
  43.8787         35
  43.8973         30
  43.9159         42
  43.9345         34
  43.9530         34
  43.9716         33
  43.9902         32
  44.0088         30
  44.0273         36
  44.0459         38
  44.0645         35
  44.0831         42
  44.1016         36
  44.1202         38
  44.1388         35
  44.1574         33
  44.1759         39
  44.1945         45
  44.2131         43
  44.2317         32
  44.2502         38
  44.2688         35
  44.2874         32
  44.3060         47
  44.3245         41
  44.3431         38
  44.3617         30
  44.3803         36
  44.3988         38
  44.4174         33
  44.4360         36
  44.4546         39
  44.4732         30
  44.4917         37
  44.5103         32
  44.5289         34
  44.5475         43
  44.5660         30
  44.5846         33
  44.6032         37
  44.6218         40
  44.6403         40
  44.6589         32
  44.6775         44
  44.6961         34
  44.7146         36
  44.7332         37
  44.7518         32
  44.7704         43
  44.7889         40
  44.8075         38
  44.8261         38
  44.8447         37
  44.8632         34
  44.8818         44
  44.9004         31
  44.9190         30
  44.9375         27
  44.9561         35
  44.9747         32
  44.9933         34
  45.0118         30
  45.0304         32
  45.0490         34
  45.0676         45
  45.0861         47
  45.1047         39
  45.1233         34
  45.1419         27
  45.1604         34
  45.1790         33
  45.1976         41
  45.2162         32
  45.2347         30
  45.2533         35
  45.2719         38
  45.2905         35
  45.3091         28
  45.3276         27
  45.3462         35
  45.3648         37
  45.3834         27
  45.4019         34
  45.4205         37
  45.4391         34
  45.4577         32
  45.4762         36
  45.4948         27
  45.5134         45
  45.5320         39
  45.5505         40
  45.5691         39
  45.5877         24
  45.6063         29
  45.6248         38
  45.6434         30
  45.6620         28
  45.6806         30
  45.6991         26
  45.7177         35
  45.7363         33
  45.7549         34
  45.7734         45
  45.7920         32
  45.8106         42
  45.8292         36
  45.8477         34
  45.8663         32
  45.8849         29
  45.9035         30
  45.9220         25
  45.9406         42
  45.9592         41
  45.9778         22
  45.9963         38
  46.0149         42
  46.0335         32
  46.0521         24
  46.0707         36
  46.0892         36
  46.1078         24
  46.1264         28
  46.1450         30
  46.1635         37
  46.1821         37
  46.2007         31
  46.2193         34
  46.2378         34
  46.2564         39
  46.2750         43
  46.2936         34
  46.3121         31
  46.3307         36
  46.3493         36
  46.3679         29
  46.3864         35
  46.4050         38
  46.4236         33
  46.4422         29
  46.4607         25
  46.4793         36
  46.4979         25
  46.5165         34
  46.5350         24
  46.5536         33
  46.5722         40
  46.5908         36
  46.6093         30
  46.6279         34
  46.6465         32
  46.6651         29
  46.6836         41
  46.7022         28
  46.7208         33
  46.7394         42
  46.7579         32
  46.7765         40
  46.7951         25
  46.8137         34
  46.8323         24
  46.8508         27
  46.8694         28
  46.8880         29
  46.9066         27
  46.9251         36
  46.9437         32
  46.9623         25
  46.9809         40
  46.9994         34
  47.0180         34
  47.0366         26
  47.0552         33
  47.0737         31
  47.0923         31
  47.1109         24
  47.1295         31
  47.1480         44
  47.1666         34
  47.1852         39
  47.2038         25
  47.2223         45
  47.2409         27
  47.2595         20
  47.2781         26
  47.2966         28
  47.3152         49
  47.3338         41
  47.3524         36
  47.3709         27
  47.3895         35
  47.4081         25
  47.4267         31
  47.4452         34
  47.4638         30
  47.4824         34
  47.5010         22
  47.5195         30
  47.5381         36
  47.5567         33
  47.5753         29
  47.5939         36
  47.6124         26
  47.6310         27
  47.6496         25
  47.6682         24
  47.6867         29
  47.7053         28
  47.7239         33
  47.7425         39
  47.7610         30
  47.7796         27
  47.7982         31
  47.8168         26
  47.8353         28
  47.8539         38
  47.8725         36
  47.8911         33
  47.9096         40
  47.9282         34
  47.9468         30
  47.9654         34
  47.9839         28
  48.0025         36
  48.0211         41
  48.0397         35
  48.0582         31
  48.0768         36
  48.0954         35
  48.1140         35
  48.1325         27
  48.1511         39
  48.1697         44
  48.1883         32
  48.2068         36
  48.2254         23
  48.2440         32
  48.2626         31
  48.2811         31
  48.2997         26
  48.3183         31
  48.3369         26
  48.3555         18
  48.3740         27
  48.3926         26
  48.4112         27
  48.4298         41
  48.4483         25
  48.4669         32
  48.4855         20
  48.5041         35
  48.5226         25
  48.5412         28
  48.5598         33
  48.5784         28
  48.5969         31
  48.6155         39
  48.6341         33
  48.6527         32
  48.6712         28
  48.6898         37
  48.7084         37
  48.7270         32
  48.7455         30
  48.7641         33
  48.7827         39
  48.8013         37
  48.8198         42
  48.8384         27
  48.8570         29
  48.8756         19
  48.8941         43
  48.9127         41
  48.9313         45
  48.9499         62
  48.9684         69
  48.9870         49
  49.0056         48
  49.0242         41
  49.0427         37
  49.0613         45
  49.0799         58
  49.0985         44
  49.1171         53
  49.1356         34
  49.1542         30
  49.1728         30
  49.1914         25
  49.2099         27
  49.2285         39
  49.2471         37
  49.2657         38
  49.2842         42
  49.3028         23
  49.3214         33
  49.3400         33
  49.3585         29
  49.3771         33
  49.3957         21
  49.4143         21
  49.4328         37
  49.4514         32
  49.4700         34
  49.4886         29
  49.5071         30
  49.5257         34
  49.5443         27
  49.5629         27
  49.5814         25
  49.6000         26
  49.6186         34
  49.6372         28
  49.6557         34
  49.6743         29
  49.6929         37
  49.7115         31
  49.7300         21
  49.7486         27
  49.7672         24
  49.7858         26
  49.8043         29
  49.8229         25
  49.8415         29
  49.8601         34
  49.8786         39
  49.8972         41
  49.9158         26
  49.9344         28
  49.9530         27
  49.9715         22
  49.9901         27
  50.0087         38
  50.0273         25
  50.0458         35
  50.0644         35
  50.0830         25
  50.1016         37
  50.1201         27
  50.1387         29
  50.1573         28
  50.1759         30
  50.1944         36
  50.2130         34
  50.2316         26
  50.2502         36
  50.2687         33
  50.2873         26
  50.3059         38
  50.3245         37
  50.3430         40
  50.3616         28
  50.3802         34
  50.3988         31
  50.4173         38
  50.4359         34
  50.4545         36
  50.4731         34
  50.4916         39
  50.5102         31
  50.5288         31
  50.5474         23
  50.5659         17
  50.5845         30
  50.6031         20
  50.6217         37
  50.6402         40
  50.6588         20
  50.6774         23
  50.6960         24
  50.7146         30
  50.7331         33
  50.7517         28
  50.7703         29
  50.7889         42
  50.8074         17
  50.8260         29
  50.8446         35
  50.8632         29
  50.8817         30
  50.9003         23
  50.9189         20
  50.9375         16
  50.9560         41
  50.9746         28
  50.9932         31
  51.0118         20
  51.0303         30
  51.0489         18
  51.0675         38
  51.0861         37
  51.1046         29
  51.1232         33
  51.1418         33
  51.1604         39
  51.1789         29
  51.1975         35
  51.2161         32
  51.2347         32
  51.2532         33
  51.2718         31
  51.2904         30
  51.3090         35
  51.3275         39
  51.3461         24
  51.3647         35
  51.3833         36
  51.4018         32
  51.4204         40
  51.4390         26
  51.4576         29
  51.4762         36
  51.4947         31
  51.5133         25
  51.5319         31
  51.5505         35
  51.5690         39
  51.5876         25
  51.6062         30
  51.6248         36
  51.6433         38
  51.6619         33
  51.6805         29
  51.6991         32
  51.7176         37
  51.7362         39
  51.7548         27
  51.7734         27
  51.7919         40
  51.8105         19
  51.8291         29
  51.8477         34
  51.8662         38
  51.8848         34
  51.9034         23
  51.9220         34
  51.9405         30
  51.9591         26
  51.9777         33
  51.9963         24
  52.0148         25
  52.0334         35
  52.0520         32
  52.0706         24
  52.0891         27
  52.1077         31
  52.1263         26
  52.1449         19
  52.1634         30
  52.1820         29
  52.2006         33
  52.2192         27
  52.2378         30
  52.2563         41
  52.2749         34
  52.2935         28
  52.3121         28
  52.3306         27
  52.3492         27
  52.3678         24
  52.3864         26
  52.4049         28
  52.4235         38
  52.4421         34
  52.4607         34
  52.4792         29
  52.4978         28
  52.5164         40
  52.5350         34
  52.5535         37
  52.5721         28
  52.5907         27
  52.6093         29
  52.6278         28
  52.6464         36
  52.6650         20
  52.6836         30
  52.7021         24
  52.7207         34
  52.7393         37
  52.7579         31
  52.7764         29
  52.7950         29
  52.8136         30
  52.8322         29
  52.8507         26
  52.8693         32
  52.8879         39
  52.9065         30
  52.9250         21
  52.9436         22
  52.9622         31
  52.9808         29
  52.9994         34
  53.0179         35
  53.0365         38
  53.0551         30
  53.0737         26
  53.0922         27
  53.1108         33
  53.1294         32
  53.1480         32
  53.1665         30
  53.1851         32
  53.2037         31
  53.2223         29
  53.2408         30
  53.2594         32
  53.2780         35
  53.2966         28
  53.3151         28
  53.3337         28
  53.3523         29
  53.3709         29
  53.3894         22
  53.4080         32
  53.4266         23
  53.4452         32
  53.4637         31
  53.4823         29
  53.5009         26
  53.5195         29
  53.5380         26
  53.5566         25
  53.5752         25
  53.5938         21
  53.6123         25
  53.6309         34
  53.6495         25
  53.6681         24
  53.6866         18
  53.7052         28
  53.7238         23
  53.7424         31
  53.7610         30
  53.7795         30
  53.7981         23
  53.8167         25
  53.8353         32
  53.8538         33
  53.8724         37
  53.8910         37
  53.9096         33
  53.9281         34
  53.9467         36
  53.9653         30
  53.9839         43
  54.0024         37
  54.0210         38
  54.0396         39
  54.0582         28
  54.0767         24
  54.0953         30
  54.1139         40
  54.1325         39
  54.1510         38
  54.1696         34
  54.1882         29
  54.2068         24
  54.2253         32
  54.2439         24
  54.2625         36
  54.2811         27
  54.2996         30
  54.3182         30
  54.3368         36
  54.3554         31
  54.3739         26
  54.3925         27
  54.4111         21
  54.4297         22
  54.4482         25
  54.4668         26
  54.4854         18
  54.5040         27
  54.5225         36
  54.5411         25
  54.5597         35
  54.5783         24
  54.5969         26
  54.6154         28
  54.6340         25
  54.6526         31
  54.6712         29
  54.6897         29
  54.7083         30
  54.7269         28
  54.7455         34
  54.7640         28
  54.7826         24
  54.8012         38
  54.8198         35
  54.8383         38
  54.8569         40
  54.8755         25
  54.8941         23
  54.9126         25
  54.9312         23
  54.9498         35
  54.9684         28
  54.9869         27
  55.0055         27
  55.0241         32
  55.0427         26
  55.0612         35
  55.0798         35
  55.0984         29
  55.1170         29
  55.1355         29
  55.1541         17
  55.1727         24
  55.1913         20
  55.2098         29
  55.2284         30
  55.2470         27
  55.2656         35
  55.2841         30
  55.3027         21
  55.3213         33
  55.3399         34
  55.3585         26
  55.3770         27
  55.3956         26
  55.4142         26
  55.4328         28
  55.4513         26
  55.4699         22
  55.4885         34
  55.5071         17
  55.5256         14
  55.5442         27
  55.5628         29
  55.5814         24
  55.5999         25
  55.6185         34
  55.6371         22
  55.6557         36
  55.6742         25
  55.6928         35
  55.7114         24
  55.7300         27
  55.7485         23
  55.7671         31
  55.7857         30
  55.8043         34
  55.8228         36
  55.8414         23
  55.8600         31
  55.8786         30
  55.8971         25
  55.9157         23
  55.9343         31
  55.9529         20
  55.9714         37
  55.9900         28
  56.0086         29
  56.0272         24
  56.0457         21
  56.0643         28
  56.0829         33
  56.1015         36
  56.1201         33
  56.1386         26
  56.1572         37
  56.1758         40
  56.1944         26
  56.2129         32
  56.2315         34
  56.2501         31
  56.2687         33
  56.2872         23
  56.3058         30
  56.3244         25
  56.3430         39
  56.3615         32
  56.3801         23
  56.3987         39
  56.4173         37
  56.4358         31
  56.4544         24
  56.4730         30
  56.4916         35
  56.5101         23
  56.5287         27
  56.5473         19
  56.5659         27
  56.5844         28
  56.6030         29
  56.6216         37
  56.6402         29
  56.6587         32
  56.6773         21
  56.6959         25
  56.7145         31
  56.7330         32
  56.7516         33
  56.7702         22
  56.7888         33
  56.8073         29
  56.8259         30
  56.8445         34
  56.8631         36
  56.8817         24
  56.9002         22
  56.9188         34
  56.9374         26
  56.9560         31
  56.9745         33
  56.9931         31
  57.0117         31
  57.0303         28
  57.0488         25
  57.0674         18
  57.0860         17
  57.1046         12
  57.1231         31
  57.1417         30
  57.1603         36
  57.1789         36
  57.1974         36
  57.2160         31
  57.2346         29
  57.2532         28
  57.2717         29
  57.2903         34
  57.3089         27
  57.3275         37
  57.3460         26
  57.3646         27
  57.3832         32
  57.4018         27
  57.4203         33
  57.4389         38
  57.4575         22
  57.4761         24
  57.4946         27
  57.5132         29
  57.5318         26
  57.5504         22
  57.5689         27
  57.5875         33
  57.6061         35
  57.6247         30
  57.6433         19
  57.6618         24
  57.6804         31
  57.6990         29
  57.7176         28
  57.7361         31
  57.7547         38
  57.7733         29
  57.7919         23
  57.8104         35
  57.8290         30
  57.8476         26
  57.8662         22
  57.8847         22
  57.9033         26
  57.9219         30
  57.9405         28
  57.9590         33
  57.9776         17
  57.9962         21
  58.0148         23
  58.0333         25
  58.0519         20
  58.0705         30
  58.0891         30
  58.1076         27
  58.1262         31
  58.1448         25
  58.1634         19
  58.1819         31
  58.2005         35
  58.2191         21
  58.2377         26
  58.2562         32
  58.2748         27
  58.2934         36
  58.3120         31
  58.3305         22
  58.3491         31
  58.3677         24
  58.3863         25
  58.4049         23
  58.4234         24
  58.4420         32
  58.4606         24
  58.4792         20
  58.4977         19
  58.5163         23
  58.5349         30
  58.5535         31
  58.5720         20
  58.5906         30
  58.6092         21
  58.6278         30
  58.6463         34
  58.6649         29
  58.6835         28
  58.7021         36
  58.7206         28
  58.7392         26
  58.7578         20
  58.7764         21
  58.7949         21
  58.8135         35
  58.8321         37
  58.8507         21
  58.8692         36
  58.8878         15
  58.9064         24
  58.9250         16
  58.9435         30
  58.9621         33
  58.9807         23
  58.9993         19
  59.0178         23
  59.0364         24
  59.0550         28
  59.0736         29
  59.0921         20
  59.1107         29
  59.1293         22
  59.1479         32
  59.1664         30
  59.1850         33
  59.2036         27
  59.2222         23
  59.2408         21
  59.2593         19
  59.2779         30
  59.2965         24
  59.3151         28
  59.3336         26
  59.3522         26
  59.3708         26
  59.3894         19
  59.4079         36
  59.4265         29
  59.4451         22
  59.4637         26
  59.4822         29
  59.5008         22
  59.5194         24
  59.5380         33
  59.5565         34
  59.5751         23
  59.5937         24
  59.6123         19
  59.6308         28
  59.6494         20
  59.6680         22
  59.6866         30
  59.7051         23
  59.7237         29
  59.7423         19
  59.7609         34
  59.7794         27
  59.7980         41
  59.8166         38
  59.8352         25
  59.8537         29
  59.8723         28
  59.8909         26
  59.9095         26
  59.9280         34
  59.9466         23
  59.9652         23
  59.9838         37
  60.0024         34
