; (content of file Y:\Sam\Apurva-07-20-2022\puck2\ML_20220720_26_SJD_0_LaB6-1min.raw)
_FILEVERSION = 3
_SAMPLE = ML_20220720_26_SJD_0_LaB6-1min
_+SAMPLE = 
_SITE = USA
_USER = Administrator
_GONIOMETER_CODE = 20
; Goniometer : D8 theta/2theta, stage : Unknown
_ATTACHMENTS_CODE = 0
_GONIOMETER_RADIUS = 200.5
_FIXED_DIVSLIT = 0.6
_FIXED_SAMPLESLIT = 0
_SOLLER_SLITS = 2
_FIXED_DETSLIT = 9.55
_MONOCHROMATOR = 0
; Incident beam monochromator : None
_SOLLER_SLITS_2 = N
_THIN_FILM = N
_BETA_FILTER = Y
_FIXED_ANTISLIT = 5.89
_ANALYZER_CODE = 0
; Received beam analyzer : None
_DATEMEASURED = "25-Jul-2022 18:34:54"
_WL_UNIT = A
_WL1 = 1.5406
_WL2 = 1.54439
_WL3 = 1.39222
_WLRATIO = 0.5
_ANODE = Cu
_V4_INF_CREATOR = XRDWizard
_V4_INF_CREATOR_VERSION = V2.9.0.22
_V4_INF_WIZARD_VERSION = V2.9.0.22
_V4_INF_WIZARD_ADDINS = V2.9.0.22
_V4_INF_WIZARD_DOCTYPE = XRD
_V4_INF_OSUSER = McQueenLab
_V4_INF_USER = Administrator
_V4_INF_SITE = USA
_V4_INF_SAMPLEID = ML_20220720_26_SJD_0_LaB6-1min

; Data for range 1
_DRIVE = COUPLED
_STEPTIME = 4.23
_STEPSIZE = 0.0185756
_STEPMODE = C
_START = 5
_THETA = 2.5
_2THETA = 5
_KHI = 0
_PHI = 0
_X = 0
_Y = 0
_Z = 0
_DETECTOR = 5
; Detector type : Unknown
_DETECTORSLIT = unkn
_AUX1 = 0
_AUX2 = 0
_AUX3 = 0
_TIMESTARTED = 15
_TEMP_RATE = -1
_TEMP_DELAY = -1
_KV = 40
_MA = 40
_RANGE_WL = 1.5406
_3DPLANE = 0
_V4_ADDITIONALDETECTOR = 257
_V4_PSD2THETA = 3.431
_V4_PSDCHANNEL1 = 0
_V4_PSDAPERTURE = 12.68
_V4_PSDTYPE = 5
_V4_PSDFIXED = 0
_V4_COUNTERS_MASK = 4096
_V4_DRIVES_MASK = 0
_V4_ENCODERS_MASK = 0
_2THETACOUNTS = 1
; 2THETA  PSD
   5.0000         95
   5.0186         89
   5.0372         84
   5.0557         95
   5.0743        103
   5.0929         96
   5.1115        101
   5.1300        101
   5.1486        105
   5.1672         89
   5.1858         88
   5.2043         98
   5.2229         89
   5.2415         81
   5.2601        100
   5.2786        105
   5.2972         96
   5.3158         81
   5.3344         88
   5.3529         76
   5.3715         77
   5.3901         88
   5.4087         88
   5.4272         83
   5.4458         85
   5.4644         87
   5.4830         65
   5.5015         77
   5.5201         86
   5.5387         94
   5.5573         76
   5.5758         81
   5.5944         73
   5.6130         85
   5.6316         79
   5.6501         68
   5.6687         70
   5.6873         77
   5.7059         76
   5.7244         58
   5.7430         81
   5.7616         83
   5.7802         78
   5.7988         66
   5.8173         74
   5.8359         82
   5.8545         76
   5.8731         87
   5.8916         58
   5.9102         72
   5.9288         92
   5.9474         72
   5.9659         83
   5.9845         78
   6.0031         74
   6.0217         74
   6.0402         80
   6.0588         85
   6.0774         74
   6.0960         66
   6.1145         59
   6.1331         68
   6.1517         65
   6.1703         76
   6.1888         85
   6.2074         75
   6.2260         68
   6.2446         76
   6.2631         77
   6.2817         70
   6.3003         72
   6.3189         58
   6.3374         57
   6.3560         83
   6.3746         58
   6.3932         59
   6.4117         70
   6.4303         81
   6.4489         62
   6.4675         69
   6.4860         79
   6.5046         62
   6.5232         62
   6.5418         60
   6.5604         74
   6.5789         56
   6.5975         63
   6.6161         71
   6.6347         76
   6.6532         65
   6.6718         65
   6.6904         64
   6.7090         68
   6.7275         64
   6.7461         71
   6.7647         65
   6.7833         54
   6.8018         55
   6.8204         66
   6.8390         70
   6.8576         74
   6.8761         49
   6.8947         66
   6.9133         69
   6.9319         55
   6.9504         59
   6.9690         58
   6.9876         53
   7.0062         59
   7.0247         53
   7.0433         52
   7.0619         62
   7.0805         51
   7.0990         45
   7.1176         62
   7.1362         66
   7.1548         71
   7.1733         49
   7.1919         61
   7.2105         50
   7.2291         68
   7.2476         54
   7.2662         59
   7.2848         56
   7.3034         61
   7.3220         44
   7.3405         63
   7.3591         54
   7.3777         54
   7.3963         44
   7.4148         56
   7.4334         66
   7.4520         78
   7.4706         59
   7.4891         65
   7.5077         67
   7.5263         62
   7.5449         61
   7.5634         42
   7.5820         55
   7.6006         67
   7.6192         66
   7.6377         79
   7.6563         68
   7.6749         60
   7.6935         72
   7.7120         64
   7.7306         50
   7.7492         73
   7.7678         45
   7.7863         65
   7.8049         74
   7.8235         78
   7.8421         64
   7.8606         79
   7.8792         63
   7.8978         60
   7.9164         62
   7.9349         55
   7.9535         77
   7.9721         69
   7.9907         72
   8.0092         64
   8.0278         75
   8.0464         79
   8.0650         64
   8.0835         80
   8.1021         78
   8.1207         75
   8.1393         70
   8.1579         77
   8.1764         73
   8.1950         64
   8.2136         74
   8.2322         70
   8.2507         70
   8.2693         67
   8.2879         80
   8.3065         67
   8.3250         87
   8.3436         75
   8.3622         82
   8.3808         72
   8.3993         77
   8.4179         55
   8.4365         66
   8.4551         75
   8.4736         62
   8.4922         69
   8.5108         63
   8.5294         90
   8.5479         73
   8.5665         64
   8.5851         67
   8.6037         71
   8.6222         63
   8.6408         62
   8.6594         60
   8.6780         73
   8.6965         79
   8.7151         79
   8.7337         84
   8.7523         71
   8.7708         81
   8.7894         69
   8.8080         72
   8.8266         81
   8.8451         94
   8.8637         85
   8.8823         58
   8.9009         84
   8.9195         84
   8.9380         65
   8.9566         65
   8.9752         70
   8.9938         82
   9.0123         62
   9.0309         78
   9.0495         74
   9.0681         95
   9.0866         81
   9.1052         62
   9.1238         88
   9.1424         73
   9.1609         98
   9.1795         72
   9.1981         70
   9.2167         86
   9.2352         77
   9.2538         74
   9.2724         76
   9.2910         92
   9.3095         77
   9.3281         73
   9.3467         83
   9.3653         95
   9.3838         84
   9.4024         86
   9.4210         88
   9.4396         82
   9.4581        106
   9.4767         76
   9.4953         89
   9.5139         83
   9.5324         73
   9.5510         82
   9.5696         79
   9.5882         70
   9.6067         66
   9.6253         72
   9.6439         76
   9.6625         85
   9.6811         80
   9.6996         76
   9.7182         70
   9.7368         90
   9.7554         84
   9.7739         82
   9.7925         87
   9.8111         90
   9.8297         86
   9.8482         84
   9.8668         86
   9.8854         73
   9.9040         81
   9.9225         84
   9.9411         96
   9.9597        100
   9.9783         92
   9.9968         86
  10.0154         90
  10.0340         83
  10.0526         69
  10.0711         85
  10.0897         84
  10.1083         88
  10.1269        109
  10.1454         71
  10.1640        100
  10.1826         96
  10.2012         89
  10.2197         98
  10.2383        106
  10.2569         73
  10.2755        110
  10.2940         97
  10.3126         87
  10.3312         82
  10.3498         86
  10.3683         84
  10.3869         90
  10.4055         96
  10.4241         80
  10.4427         77
  10.4612         81
  10.4798         91
  10.4984        101
  10.5170         82
  10.5355         76
  10.5541         88
  10.5727         78
  10.5913         78
  10.6098         94
  10.6284        102
  10.6470         65
  10.6656         75
  10.6841         81
  10.7027         94
  10.7213        104
  10.7399        116
  10.7584         78
  10.7770         86
  10.7956        103
  10.8142         80
  10.8327         62
  10.8513         95
  10.8699         92
  10.8885         99
  10.9070         97
  10.9256        105
  10.9442        102
  10.9628         84
  10.9813         95
  10.9999         91
  11.0185         85
  11.0371         84
  11.0556        113
  11.0742        109
  11.0928         84
  11.1114         75
  11.1299         73
  11.1485         73
  11.1671         86
  11.1857         91
  11.2043         83
  11.2228         89
  11.2414         89
  11.2600         80
  11.2786         77
  11.2971         88
  11.3157         88
  11.3343         78
  11.3529         93
  11.3714         84
  11.3900         76
  11.4086         92
  11.4272         82
  11.4457         89
  11.4643         78
  11.4829         89
  11.5015         97
  11.5200         65
  11.5386         92
  11.5572         83
  11.5758         82
  11.5943         79
  11.6129         71
  11.6315         86
  11.6501         79
  11.6686         94
  11.6872         87
  11.7058        101
  11.7244         92
  11.7429         99
  11.7615         92
  11.7801         72
  11.7987        101
  11.8172         86
  11.8358         82
  11.8544        103
  11.8730         82
  11.8915         99
  11.9101         84
  11.9287         74
  11.9473         84
  11.9659         79
  11.9844         89
  12.0030         88
  12.0216         77
  12.0402         86
  12.0587        100
  12.0773         83
  12.0959         68
  12.1145         81
  12.1330         70
  12.1516         74
  12.1702         87
  12.1888         94
  12.2073         82
  12.2259         96
  12.2445         97
  12.2631         65
  12.2816         75
  12.3002         76
  12.3188         93
  12.3374         84
  12.3559         90
  12.3745        101
  12.3931         88
  12.4117         80
  12.4302         73
  12.4488         73
  12.4674         89
  12.4860         94
  12.5045         81
  12.5231         89
  12.5417         90
  12.5603         75
  12.5788         67
  12.5974         79
  12.6160         54
  12.6346         65
  12.6531         77
  12.6717         65
  12.6903         77
  12.7089         66
  12.7274         79
  12.7460         77
  12.7646         93
  12.7832         97
  12.8018         76
  12.8203         79
  12.8389         77
  12.8575         81
  12.8761         84
  12.8946         86
  12.9132         71
  12.9318         79
  12.9504         78
  12.9689         64
  12.9875         78
  13.0061         70
  13.0247         74
  13.0432         69
  13.0618         63
  13.0804         77
  13.0990         71
  13.1175         81
  13.1361         75
  13.1547         71
  13.1733         81
  13.1918         76
  13.2104         74
  13.2290         60
  13.2476         84
  13.2661         77
  13.2847         72
  13.3033         77
  13.3219         72
  13.3404         85
  13.3590         68
  13.3776         68
  13.3962         86
  13.4147         66
  13.4333         63
  13.4519         49
  13.4705         80
  13.4890         67
  13.5076         54
  13.5262         68
  13.5448         62
  13.5634         59
  13.5819         68
  13.6005         73
  13.6191         63
  13.6377         69
  13.6562         66
  13.6748         47
  13.6934         58
  13.7120         69
  13.7305         61
  13.7491         69
  13.7677         63
  13.7863         60
  13.8048         54
  13.8234         59
  13.8420         63
  13.8606         65
  13.8791         80
  13.8977         59
  13.9163         53
  13.9349         74
  13.9534         63
  13.9720         70
  13.9906         67
  14.0092         72
  14.0277         67
  14.0463         75
  14.0649         78
  14.0835         67
  14.1020         61
  14.1206         54
  14.1392         68
  14.1578         71
  14.1763         68
  14.1949         48
  14.2135         80
  14.2321         66
  14.2506         59
  14.2692         66
  14.2878         76
  14.3064         59
  14.3250         69
  14.3435         52
  14.3621         59
  14.3807         63
  14.3993         58
  14.4178         59
  14.4364         48
  14.4550         43
  14.4736         65
  14.4921         65
  14.5107         66
  14.5293         63
  14.5479         61
  14.5664         62
  14.5850         57
  14.6036         68
  14.6222         70
  14.6407         65
  14.6593         63
  14.6779         55
  14.6965         77
  14.7150         80
  14.7336         63
  14.7522         64
  14.7708         57
  14.7893         61
  14.8079         51
  14.8265         60
  14.8451         54
  14.8636         53
  14.8822         50
  14.9008         55
  14.9194         58
  14.9379         58
  14.9565         68
  14.9751         67
  14.9937         64
  15.0122         63
  15.0308         53
  15.0494         73
  15.0680         55
  15.0866         53
  15.1051         64
  15.1237         69
  15.1423         64
  15.1609         59
  15.1794         69
  15.1980         44
  15.2166         67
  15.2352         57
  15.2537         55
  15.2723         69
  15.2909         53
  15.3095         58
  15.3280         58
  15.3466         63
  15.3652         55
  15.3838         62
  15.4023         57
  15.4209         63
  15.4395         51
  15.4581         77
  15.4766         58
  15.4952         62
  15.5138         70
  15.5324         59
  15.5509         60
  15.5695         49
  15.5881         76
  15.6067         66
  15.6252         69
  15.6438         54
  15.6624         65
  15.6810         60
  15.6995         59
  15.7181         67
  15.7367         67
  15.7553         62
  15.7738         66
  15.7924         56
  15.8110         56
  15.8296         61
  15.8482         75
  15.8667         68
  15.8853         64
  15.9039         76
  15.9225         59
  15.9410         60
  15.9596         69
  15.9782         68
  15.9968         71
  16.0153         68
  16.0339         54
  16.0525         57
  16.0711         57
  16.0896         59
  16.1082         79
  16.1268         63
  16.1454         70
  16.1639         64
  16.1825         66
  16.2011         67
  16.2197         69
  16.2382         53
  16.2568         49
  16.2754         69
  16.2940         54
  16.3125         60
  16.3311         59
  16.3497         57
  16.3683         58
  16.3868         57
  16.4054         54
  16.4240         55
  16.4426         64
  16.4611         60
  16.4797         51
  16.4983         70
  16.5169         65
  16.5354         72
  16.5540         62
  16.5726         59
  16.5912         52
  16.6097         60
  16.6283         58
  16.6469         61
  16.6655         61
  16.6841         58
  16.7026         63
  16.7212         59
  16.7398         76
  16.7584         60
  16.7769         57
  16.7955         55
  16.8141         54
  16.8327         38
  16.8512         64
  16.8698         58
  16.8884         61
  16.9070         77
  16.9255         46
  16.9441         65
  16.9627         52
  16.9813         68
  16.9998         45
  17.0184         56
  17.0370         68
  17.0556         64
  17.0741         55
  17.0927         71
  17.1113         69
  17.1299         55
  17.1484         64
  17.1670         60
  17.1856         52
  17.2042         53
  17.2227         59
  17.2413         57
  17.2599         59
  17.2785         49
  17.2970         62
  17.3156         48
  17.3342         69
  17.3528         57
  17.3713         63
  17.3899         62
  17.4085         63
  17.4271         64
  17.4457         52
  17.4642         55
  17.4828         65
  17.5014         52
  17.5200         58
  17.5385         61
  17.5571         68
  17.5757         65
  17.5943         61
  17.6128         70
  17.6314         52
  17.6500         66
  17.6686         75
  17.6871         75
  17.7057         66
  17.7243         55
  17.7429         59
  17.7614         54
  17.7800         67
  17.7986         60
  17.8172         71
  17.8357         54
  17.8543         54
  17.8729         58
  17.8915         55
  17.9100         52
  17.9286         70
  17.9472         61
  17.9658         57
  17.9843         63
  18.0029         56
  18.0215         69
  18.0401         56
  18.0586         63
  18.0772         43
  18.0958         76
  18.1144         56
  18.1329         61
  18.1515         69
  18.1701         56
  18.1887         46
  18.2073         74
  18.2258         75
  18.2444         68
  18.2630         72
  18.2816         60
  18.3001         67
  18.3187         60
  18.3373         68
  18.3559         55
  18.3744         55
  18.3930         49
  18.4116         58
  18.4302         66
  18.4487         56
  18.4673         75
  18.4859         63
  18.5045         77
  18.5230         60
  18.5416         69
  18.5602         54
  18.5788         63
  18.5973         55
  18.6159         61
  18.6345         55
  18.6531         61
  18.6716         65
  18.6902         57
  18.7088         60
  18.7274         60
  18.7459         81
  18.7645         58
  18.7831         48
  18.8017         71
  18.8202         73
  18.8388         59
  18.8574         72
  18.8760         62
  18.8945         49
  18.9131         69
  18.9317         71
  18.9503         64
  18.9689         67
  18.9874         57
  19.0060         65
  19.0246         67
  19.0432         64
  19.0617         67
  19.0803         58
  19.0989         61
  19.1175         53
  19.1360         56
  19.1546         55
  19.1732         65
  19.1918         63
  19.2103         66
  19.2289         67
  19.2475         67
  19.2661         53
  19.2846         53
  19.3032         63
  19.3218         60
  19.3404         48
  19.3589         70
  19.3775         68
  19.3961         68
  19.4147         70
  19.4332         51
  19.4518         53
  19.4704         63
  19.4890         59
  19.5075         66
  19.5261         68
  19.5447         50
  19.5633         72
  19.5818         60
  19.6004         65
  19.6190         68
  19.6376         59
  19.6561         62
  19.6747         63
  19.6933         53
  19.7119         81
  19.7305         69
  19.7490         57
  19.7676         52
  19.7862         61
  19.8048         72
  19.8233         62
  19.8419         64
  19.8605         46
  19.8791         72
  19.8976         62
  19.9162         62
  19.9348         65
  19.9534         64
  19.9719         54
  19.9905         82
  20.0091         72
  20.0277         61
  20.0462         66
  20.0648         55
  20.0834         73
  20.1020         63
  20.1205         72
  20.1391         66
  20.1577         81
  20.1763         57
  20.1948         68
  20.2134         61
  20.2320         66
  20.2506         85
  20.2691         62
  20.2877         65
  20.3063         75
  20.3249         63
  20.3434         86
  20.3620         51
  20.3806         78
  20.3992         56
  20.4177         83
  20.4363         64
  20.4549         72
  20.4735         71
  20.4921         57
  20.5106         65
  20.5292         70
  20.5478         57
  20.5664         66
  20.5849         73
  20.6035         74
  20.6221         79
  20.6407         68
  20.6592         72
  20.6778         75
  20.6964         70
  20.7150         59
  20.7335         67
  20.7521         68
  20.7707         65
  20.7893         72
  20.8078         73
  20.8264         77
  20.8450         77
  20.8636         72
  20.8821         63
  20.9007         82
  20.9193         69
  20.9379         78
  20.9564         65
  20.9750         65
  20.9936         84
  21.0122         66
  21.0307         62
  21.0493         76
  21.0679         96
  21.0865         61
  21.1050         96
  21.1236         67
  21.1422         80
  21.1608         58
  21.1793        107
  21.1979        114
  21.2165        138
  21.2351        118
  21.2537        116
  21.2722        106
  21.2908        118
  21.3094        112
  21.3280        135
  21.3465        188
  21.3651        178
  21.3837        137
  21.4023        147
  21.4208        101
  21.4394         92
  21.4580         86
  21.4766         70
  21.4951         69
  21.5137         74
  21.5323         75
  21.5509         80
  21.5694         59
  21.5880         73
  21.6066         66
  21.6252         89
  21.6437         71
  21.6623         61
  21.6809         75
  21.6995         68
  21.7180         66
  21.7366         74
  21.7552         83
  21.7738         65
  21.7923         59
  21.8109         67
  21.8295         62
  21.8481         71
  21.8666         80
  21.8852         75
  21.9038         62
  21.9224         66
  21.9409         81
  21.9595         76
  21.9781         70
  21.9967         69
  22.0152         70
  22.0338         74
  22.0524         98
  22.0710         67
  22.0896         76
  22.1081         73
  22.1267         84
  22.1453         75
  22.1639         67
  22.1824         73
  22.2010         78
  22.2196         58
  22.2382         75
  22.2567         85
  22.2753         72
  22.2939         85
  22.3125         71
  22.3310         60
  22.3496         80
  22.3682         67
  22.3868         69
  22.4053         67
  22.4239         51
  22.4425         74
  22.4611         67
  22.4796         72
  22.4982         70
  22.5168         66
  22.5354         68
  22.5539         61
  22.5725         71
  22.5911         64
  22.6097         55
  22.6282         70
  22.6468         67
  22.6654         62
  22.6840         67
  22.7025         72
  22.7211         81
  22.7397         83
  22.7583         67
  22.7768         75
  22.7954         61
  22.8140         59
  22.8326         60
  22.8512         78
  22.8697         72
  22.8883         72
  22.9069         81
  22.9255         58
  22.9440         71
  22.9626         83
  22.9812         59
  22.9998         66
  23.0183         74
  23.0369         83
  23.0555         80
  23.0741         76
  23.0926         67
  23.1112         75
  23.1298         80
  23.1484         85
  23.1669         71
  23.1855         71
  23.2041         72
  23.2227         76
  23.2412         71
  23.2598         71
  23.2784         65
  23.2970         83
  23.3155         75
  23.3341         75
  23.3527         72
  23.3713         69
  23.3898         83
  23.4084         77
  23.4270         81
  23.4456         63
  23.4641         73
  23.4827         86
  23.5013         69
  23.5199         80
  23.5384         80
  23.5570         79
  23.5756         77
  23.5942         65
  23.6128         77
  23.6313         81
  23.6499         82
  23.6685         88
  23.6871         65
  23.7056         75
  23.7242         84
  23.7428         70
  23.7614         70
  23.7799         71
  23.7985         79
  23.8171         81
  23.8357         67
  23.8542         71
  23.8728         86
  23.8914         74
  23.9100         73
  23.9285         82
  23.9471         78
  23.9657         65
  23.9843         93
  24.0028         63
  24.0214         76
  24.0400         77
  24.0586         86
  24.0771         82
  24.0957         77
  24.1143         79
  24.1329         73
  24.1514         83
  24.1700         69
  24.1886         81
  24.2072         83
  24.2257         99
  24.2443         79
  24.2629         67
  24.2815         83
  24.3000         77
  24.3186         77
  24.3372         88
  24.3558         76
  24.3744         70
  24.3929         90
  24.4115         79
  24.4301         90
  24.4487         77
  24.4672         85
  24.4858         62
  24.5044         74
  24.5230         60
  24.5415         75
  24.5601         89
  24.5787         73
  24.5973         63
  24.6158         67
  24.6344         74
  24.6530         69
  24.6716         60
  24.6901         75
  24.7087         81
  24.7273         72
  24.7459         81
  24.7644         84
  24.7830         68
  24.8016         82
  24.8202         65
  24.8387         76
  24.8573         73
  24.8759         67
  24.8945         96
  24.9130         65
  24.9316         67
  24.9502         77
  24.9688         51
  24.9873         72
  25.0059         69
  25.0245         65
  25.0431         67
  25.0616         66
  25.0802         63
  25.0988         87
  25.1174         81
  25.1360         73
  25.1545         67
  25.1731         65
  25.1917         68
  25.2103         59
  25.2288         80
  25.2474         80
  25.2660         92
  25.2846         73
  25.3031         66
  25.3217         87
  25.3403         73
  25.3589         68
  25.3774         74
  25.3960         63
  25.4146         74
  25.4332         68
  25.4517         78
  25.4703         74
  25.4889         70
  25.5075         80
  25.5260         72
  25.5446         61
  25.5632         80
  25.5818         69
  25.6003         81
  25.6189         78
  25.6375         79
  25.6561         91
  25.6746         63
  25.6932         75
  25.7118         57
  25.7304         68
  25.7489         64
  25.7675         73
  25.7861         66
  25.8047         71
  25.8232         78
  25.8418         74
  25.8604         73
  25.8790         73
  25.8976         82
  25.9161         64
  25.9347         82
  25.9533         90
  25.9719         71
  25.9904         69
  26.0090         54
  26.0276         73
  26.0462         70
  26.0647         72
  26.0833         76
  26.1019         72
  26.1205         62
  26.1390         61
  26.1576         61
  26.1762         73
  26.1948         72
  26.2133         76
  26.2319         80
  26.2505         63
  26.2691         73
  26.2876         86
  26.3062         70
  26.3248         73
  26.3434         63
  26.3619         67
  26.3805         68
  26.3991         87
  26.4177         56
  26.4362         66
  26.4548         87
  26.4734         75
  26.4920         69
  26.5105         65
  26.5291         67
  26.5477         74
  26.5663         64
  26.5848         64
  26.6034         62
  26.6220         68
  26.6406         70
  26.6591         66
  26.6777         73
  26.6963         55
  26.7149         71
  26.7335         72
  26.7520         60
  26.7706         66
  26.7892         77
  26.8078         77
  26.8263         82
  26.8449         68
  26.8635         66
  26.8821         65
  26.9006         84
  26.9192         75
  26.9378         73
  26.9564         91
  26.9749         62
  26.9935         69
  27.0121         68
  27.0307         64
  27.0492         69
  27.0678         74
  27.0864         77
  27.1050         70
  27.1235         71
  27.1421         91
  27.1607         86
  27.1793         83
  27.1978         97
  27.2164         74
  27.2350         92
  27.2536         72
  27.2721         77
  27.2907         69
  27.3093         75
  27.3279         74
  27.3464         67
  27.3650         55
  27.3836         67
  27.4022         72
  27.4207         72
  27.4393         82
  27.4579         70
  27.4765         65
  27.4951         77
  27.5136         61
  27.5322         69
  27.5508         64
  27.5694         67
  27.5879         61
  27.6065         75
  27.6251         52
  27.6437         64
  27.6622         69
  27.6808         71
  27.6994         58
  27.7180         68
  27.7365         69
  27.7551         65
  27.7737         62
  27.7923         72
  27.8108         53
  27.8294         73
  27.8480         72
  27.8666         62
  27.8851         60
  27.9037         58
  27.9223         78
  27.9409         71
  27.9594         69
  27.9780         64
  27.9966         69
  28.0152         69
  28.0337         57
  28.0523         62
  28.0709         67
  28.0895         61
  28.1080         72
  28.1266         74
  28.1452         67
  28.1638         66
  28.1823         67
  28.2009         59
  28.2195         58
  28.2381         54
  28.2567         62
  28.2752         62
  28.2938         73
  28.3124         71
  28.3310         56
  28.3495         59
  28.3681         71
  28.3867         61
  28.4053         65
  28.4238         72
  28.4424         60
  28.4610         65
  28.4796         57
  28.4981         67
  28.5167         65
  28.5353         59
  28.5539         68
  28.5724         56
  28.5910         54
  28.6096         63
  28.6282         63
  28.6467         66
  28.6653         46
  28.6839         64
  28.7025         57
  28.7210         76
  28.7396         67
  28.7582         53
  28.7768         44
  28.7953         50
  28.8139         60
  28.8325         57
  28.8511         59
  28.8696         69
  28.8882         48
  28.9068         61
  28.9254         57
  28.9439         57
  28.9625         65
  28.9811         58
  28.9997         43
  29.0183         47
  29.0368         62
  29.0554         46
  29.0740         53
  29.0926         67
  29.1111         62
  29.1297         68
  29.1483         62
  29.1669         62
  29.1854         72
  29.2040         46
  29.2226         62
  29.2412         59
  29.2597         51
  29.2783         61
  29.2969         50
  29.3155         56
  29.3340         64
  29.3526         57
  29.3712         52
  29.3898         62
  29.4083         51
  29.4269         67
  29.4455         60
  29.4641         71
  29.4826         67
  29.5012         57
  29.5198         63
  29.5384         56
  29.5569         59
  29.5755         62
  29.5941         60
  29.6127         70
  29.6312         54
  29.6498         70
  29.6684         56
  29.6870         75
  29.7055         69
  29.7241         63
  29.7427         44
  29.7613         66
  29.7799         52
  29.7984         59
  29.8170         56
  29.8356         61
  29.8542         55
  29.8727         61
  29.8913         57
  29.9099         51
  29.9285         55
  29.9470         48
  29.9656         62
  29.9842         58
  30.0028         61
  30.0213         56
  30.0399         54
  30.0585         59
  30.0771         62
  30.0956         54
  30.1142         45
  30.1328         58
  30.1514         58
  30.1699         52
  30.1885         60
  30.2071         68
  30.2257         46
  30.2442         58
  30.2628         65
  30.2814         63
  30.3000         72
  30.3185         77
  30.3371         65
  30.3557         75
  30.3743        121
  30.3928        129
  30.4114         93
  30.4300         94
  30.4486         95
  30.4671         98
  30.4857         80
  30.5043         61
  30.5229         57
  30.5415         43
  30.5600         55
  30.5786         54
  30.5972         69
  30.6158         51
  30.6343         55
  30.6529         51
  30.6715         82
  30.6901         62
  30.7086         52
  30.7272         55
  30.7458         53
  30.7644         54
  30.7829         59
  30.8015         59
  30.8201         44
  30.8387         62
  30.8572         46
  30.8758         59
  30.8944         58
  30.9130         60
  30.9315         53
  30.9501         52
  30.9687         49
  30.9873         50
  31.0058         44
  31.0244         42
  31.0430         57
  31.0616         49
  31.0801         59
  31.0987         39
  31.1173         57
  31.1359         56
  31.1544         59
  31.1730         31
  31.1916         46
  31.2102         59
  31.2287         56
  31.2473         43
  31.2659         48
  31.2845         61
  31.3030         58
  31.3216         54
  31.3402         58
  31.3588         65
  31.3774         59
  31.3959         51
  31.4145         61
  31.4331         52
  31.4517         48
  31.4702         47
  31.4888         43
  31.5074         60
  31.5260         40
  31.5445         58
  31.5631         42
  31.5817         49
  31.6003         47
  31.6188         42
  31.6374         37
  31.6560         53
  31.6746         56
  31.6931         54
  31.7117         40
  31.7303         58
  31.7489         48
  31.7674         47
  31.7860         55
  31.8046         52
  31.8232         36
  31.8417         54
  31.8603         61
  31.8789         60
  31.8975         54
  31.9160         38
  31.9346         48
  31.9532         41
  31.9718         47
  31.9903         49
  32.0089         49
  32.0275         45
  32.0461         50
  32.0646         46
  32.0832         46
  32.1018         48
  32.1204         49
  32.1390         48
  32.1575         51
  32.1761         51
  32.1947         42
  32.2133         54
  32.2318         56
  32.2504         43
  32.2690         37
  32.2876         52
  32.3061         41
  32.3247         51
  32.3433         51
  32.3619         57
  32.3804         55
  32.3990         64
  32.4176         48
  32.4362         60
  32.4547         55
  32.4733         51
  32.4919         62
  32.5105         50
  32.5290         55
  32.5476         56
  32.5662         42
  32.5848         51
  32.6033         48
  32.6219         40
  32.6405         41
  32.6591         39
  32.6776         57
  32.6962         43
  32.7148         58
  32.7334         56
  32.7519         45
  32.7705         53
  32.7891         41
  32.8077         50
  32.8262         33
  32.8448         47
  32.8634         51
  32.8820         43
  32.9006         60
  32.9191         44
  32.9377         46
  32.9563         46
  32.9749         41
  32.9934         41
  33.0120         46
  33.0306         54
  33.0492         41
  33.0677         55
  33.0863         52
  33.1049         40
  33.1235         51
  33.1420         49
  33.1606         44
  33.1792         43
  33.1978         58
  33.2163         41
  33.2349         64
  33.2535         36
  33.2721         41
  33.2906         46
  33.3092         38
  33.3278         35
  33.3464         25
  33.3649         46
  33.3835         43
  33.4021         44
  33.4207         48
  33.4392         63
  33.4578         48
  33.4764         45
  33.4950         45
  33.5135         52
  33.5321         41
  33.5507         43
  33.5693         43
  33.5878         42
  33.6064         49
  33.6250         41
  33.6436         54
  33.6622         42
  33.6807         45
  33.6993         45
  33.7179         56
  33.7365         33
  33.7550         47
  33.7736         53
  33.7922         38
  33.8108         39
  33.8293         43
  33.8479         26
  33.8665         42
  33.8851         47
  33.9036         37
  33.9222         52
  33.9408         42
  33.9594         50
  33.9779         53
  33.9965         35
  34.0151         43
  34.0337         42
  34.0522         36
  34.0708         38
  34.0894         41
  34.1080         41
  34.1265         43
  34.1451         39
  34.1637         34
  34.1823         43
  34.2008         34
  34.2194         45
  34.2380         52
  34.2566         50
  34.2751         40
  34.2937         40
  34.3123         45
  34.3309         34
  34.3494         40
  34.3680         31
  34.3866         38
  34.4052         32
  34.4238         48
  34.4423         37
  34.4609         49
  34.4795         43
  34.4981         49
  34.5166         36
  34.5352         50
  34.5538         44
  34.5724         41
  34.5909         41
  34.6095         47
  34.6281         40
  34.6467         41
  34.6652         42
  34.6838         53
  34.7024         35
  34.7210         48
  34.7395         50
  34.7581         46
  34.7767         64
  34.7953         68
  34.8138         59
  34.8324         59
  34.8510         48
  34.8696         48
  34.8881         57
  34.9067         49
  34.9253         36
  34.9439         51
  34.9624         49
  34.9810         43
  34.9996         48
  35.0182         42
  35.0367         28
  35.0553         39
  35.0739         42
  35.0925         34
  35.1110         41
  35.1296         47
  35.1482         35
  35.1668         33
  35.1854         37
  35.2039         33
  35.2225         48
  35.2411         44
  35.2597         43
  35.2782         37
  35.2968         41
  35.3154         37
  35.3340         37
  35.3525         35
  35.3711         37
  35.3897         32
  35.4083         38
  35.4268         48
  35.4454         34
  35.4640         38
  35.4826         31
  35.5011         43
  35.5197         32
  35.5383         30
  35.5569         44
  35.5754         26
  35.5940         45
  35.6126         30
  35.6312         48
  35.6497         36
  35.6683         38
  35.6869         41
  35.7055         38
  35.7240         46
  35.7426         31
  35.7612         33
  35.7798         46
  35.7983         44
  35.8169         31
  35.8355         28
  35.8541         38
  35.8726         43
  35.8912         26
  35.9098         36
  35.9284         43
  35.9469         41
  35.9655         38
  35.9841         32
  36.0027         31
  36.0213         30
  36.0398         49
  36.0584         40
  36.0770         38
  36.0956         24
  36.1141         41
  36.1327         25
  36.1513         39
  36.1699         40
  36.1884         38
  36.2070         27
  36.2256         30
  36.2442         31
  36.2627         43
  36.2813         31
  36.2999         26
  36.3185         26
  36.3370         41
  36.3556         37
  36.3742         27
  36.3928         39
  36.4113         32
  36.4299         32
  36.4485         30
  36.4671         25
  36.4856         23
  36.5042         36
  36.5228         25
  36.5414         31
  36.5599         27
  36.5785         34
  36.5971         39
  36.6157         38
  36.6342         39
  36.6528         39
  36.6714         30
  36.6900         38
  36.7085         34
  36.7271         37
  36.7457         55
  36.7643         35
  36.7829         32
  36.8014         40
  36.8200         41
  36.8386         37
  36.8572         40
  36.8757         24
  36.8943         34
  36.9129         40
  36.9315         26
  36.9500         30
  36.9686         36
  36.9872         34
  37.0058         34
  37.0243         28
  37.0429         36
  37.0615         33
  37.0801         31
  37.0986         37
  37.1172         36
  37.1358         26
  37.1544         38
  37.1729         35
  37.1915         38
  37.2101         39
  37.2287         54
  37.2472         36
  37.2658         28
  37.2844         31
  37.3030         27
  37.3215         33
  37.3401         54
  37.3587         39
  37.3773         39
  37.3958         43
  37.4144         53
  37.4330         69
  37.4516         51
  37.4701         35
  37.4887         53
  37.5073         47
  37.5259         55
  37.5445         37
  37.5630         46
  37.5816         44
  37.6002         39
  37.6188         39
  37.6373         30
  37.6559         39
  37.6745         29
  37.6931         33
  37.7116         40
  37.7302         25
  37.7488         39
  37.7674         28
  37.7859         40
  37.8045         24
  37.8231         26
  37.8417         36
  37.8602         31
  37.8788         16
  37.8974         33
  37.9160         26
  37.9345         39
  37.9531         26
  37.9717         34
  37.9903         28
  38.0088         23
  38.0274         39
  38.0460         34
  38.0646         33
  38.0831         28
  38.1017         29
  38.1203         27
  38.1389         26
  38.1574         27
  38.1760         31
  38.1946         20
  38.2132         32
  38.2317         29
  38.2503         30
  38.2689         29
  38.2875         29
  38.3061         34
  38.3246         29
  38.3432         21
  38.3618         26
  38.3804         22
  38.3989         33
  38.4175         29
  38.4361         33
  38.4547         33
  38.4732         34
  38.4918         38
  38.5104         37
  38.5290         28
  38.5475         26
  38.5661         35
  38.5847         29
  38.6033         35
  38.6218         34
  38.6404         33
  38.6590         19
  38.6776         23
  38.6961         27
  38.7147         32
  38.7333         25
  38.7519         29
  38.7704         35
  38.7890         28
  38.8076         40
  38.8262         37
  38.8447         22
  38.8633         37
  38.8819         31
  38.9005         42
  38.9190         33
  38.9376         27
  38.9562         28
  38.9748         31
  38.9933         32
  39.0119         25
  39.0305         18
  39.0491         24
  39.0677         40
  39.0862         34
  39.1048         32
  39.1234         28
  39.1420         35
  39.1605         34
  39.1791         27
  39.1977         33
  39.2163         26
  39.2348         29
  39.2534         27
  39.2720         30
  39.2906         27
  39.3091         22
  39.3277         25
  39.3463         33
  39.3649         27
  39.3834         24
  39.4020         26
  39.4206         39
  39.4392         32
  39.4577         31
  39.4763         27
  39.4949         40
  39.5135         30
  39.5320         24
  39.5506         20
  39.5692         33
  39.5878         43
  39.6063         28
  39.6249         30
  39.6435         30
  39.6621         25
  39.6806         27
  39.6992         36
  39.7178         36
  39.7364         30
  39.7549         25
  39.7735         37
  39.7921         30
  39.8107         24
  39.8293         23
  39.8478         36
  39.8664         24
  39.8850         20
  39.9036         33
  39.9221         23
  39.9407         31
  39.9593         26
  39.9779         30
  39.9964         29
  40.0150         33
  40.0336         19
  40.0522         22
  40.0707         31
  40.0893         30
  40.1079         34
  40.1265         30
  40.1450         28
  40.1636         27
  40.1822         37
  40.2008         25
  40.2193         21
  40.2379         26
  40.2565         24
  40.2751         27
  40.2936         26
  40.3122         24
  40.3308         26
  40.3494         26
  40.3679         41
  40.3865         31
  40.4051         31
  40.4237         25
  40.4422         35
  40.4608         28
  40.4794         27
  40.4980         25
  40.5165         27
  40.5351         24
  40.5537         27
  40.5723         30
  40.5908         40
  40.6094         35
  40.6280         20
  40.6466         25
  40.6652         37
  40.6837         26
  40.7023         24
  40.7209         30
  40.7395         25
  40.7580         22
  40.7766         26
  40.7952         33
  40.8138         34
  40.8323         27
  40.8509         29
  40.8695         37
  40.8881         31
  40.9066         25
  40.9252         31
  40.9438         31
  40.9624         34
  40.9809         40
  40.9995         33
  41.0181         25
  41.0367         23
  41.0552         30
  41.0738         35
  41.0924         24
  41.1110         27
  41.1295         37
  41.1481         27
  41.1667         35
  41.1853         36
  41.2038         34
  41.2224         25
  41.2410         30
  41.2596         31
  41.2781         33
  41.2967         30
  41.3153         26
  41.3339         32
  41.3524         28
  41.3710         23
  41.3896         31
  41.4082         34
  41.4268         27
  41.4453         27
  41.4639         27
  41.4825         23
  41.5011         17
  41.5196         26
  41.5382         35
  41.5568         34
  41.5754         34
  41.5939         31
  41.6125         29
  41.6311         30
  41.6497         40
  41.6682         31
  41.6868         37
  41.7054         31
  41.7240         21
  41.7425         26
  41.7611         27
  41.7797         26
  41.7983         32
  41.8168         32
  41.8354         30
  41.8540         33
  41.8726         24
  41.8911         19
  41.9097         30
  41.9283         29
  41.9469         29
  41.9654         23
  41.9840         24
  42.0026         30
  42.0212         23
  42.0397         35
  42.0583         34
  42.0769         21
  42.0955         31
  42.1140         19
  42.1326         25
  42.1512         25
  42.1698         27
  42.1884         31
  42.2069         31
  42.2255         28
  42.2441         21
  42.2627         29
  42.2812         29
  42.2998         22
  42.3184         30
  42.3370         31
  42.3555         30
  42.3741         30
  42.3927         18
  42.4113         23
  42.4298         29
  42.4484         30
  42.4670         36
  42.4856         30
  42.5041         25
  42.5227         32
  42.5413         30
  42.5599         28
  42.5784         24
  42.5970         28
  42.6156         34
  42.6342         22
  42.6527         19
  42.6713         21
  42.6899         30
  42.7085         23
  42.7270         28
  42.7456         20
  42.7642         26
  42.7828         34
  42.8013         28
  42.8199         20
  42.8385         17
  42.8571         33
  42.8756         31
  42.8942         19
  42.9128         26
  42.9314         28
  42.9500         31
  42.9685         32
  42.9871         35
  43.0057         32
  43.0243         31
  43.0428         28
  43.0614         19
  43.0800         22
  43.0986         32
  43.1171         24
  43.1357         32
  43.1543         23
  43.1729         22
  43.1914         27
  43.2100         25
  43.2286         31
  43.2472         20
  43.2657         36
  43.2843         28
  43.3029         31
  43.3215         29
  43.3400         25
  43.3586         35
  43.3772         38
  43.3958         26
  43.4143         17
  43.4329         29
  43.4515         34
  43.4701         40
  43.4886         46
  43.5072         75
  43.5258         46
  43.5444         44
  43.5629         25
  43.5815         28
  43.6001         36
  43.6187         39
  43.6372         29
  43.6558         24
  43.6744         30
  43.6930         34
  43.7116         37
  43.7301         29
  43.7487         35
  43.7673         26
  43.7859         33
  43.8044         18
  43.8230         27
  43.8416         26
  43.8602         22
  43.8787         25
  43.8973         22
  43.9159         30
  43.9345         28
  43.9530         24
  43.9716         26
  43.9902         23
  44.0088         29
  44.0273         25
  44.0459         23
  44.0645         19
  44.0831         31
  44.1016         30
  44.1202         28
  44.1388         23
  44.1574         29
  44.1759         33
  44.1945         22
  44.2131         24
  44.2317         20
  44.2502         27
  44.2688         23
  44.2874         37
  44.3060         28
  44.3245         19
  44.3431         19
  44.3617         31
  44.3803         28
  44.3988         41
  44.4174         17
  44.4360         34
  44.4546         28
  44.4732         23
  44.4917         27
  44.5103         21
  44.5289         34
  44.5475         33
  44.5660         30
  44.5846         33
  44.6032         30
  44.6218         31
  44.6403         26
  44.6589         26
  44.6775         26
  44.6961         31
  44.7146         27
  44.7332         31
  44.7518         28
  44.7704         23
  44.7889         27
  44.8075         28
  44.8261         31
  44.8447         34
  44.8632         28
  44.8818         31
  44.9004         18
  44.9190         27
  44.9375         30
  44.9561         24
  44.9747         19
  44.9933         25
  45.0118         28
  45.0304         27
  45.0490         26
  45.0676         22
  45.0861         31
  45.1047         21
  45.1233         26
  45.1419         20
  45.1604         26
  45.1790         23
  45.1976         22
  45.2162         24
  45.2347         27
  45.2533         18
  45.2719         28
  45.2905         24
  45.3091         25
  45.3276         20
  45.3462         26
  45.3648         26
  45.3834         26
  45.4019         18
  45.4205         23
  45.4391         30
  45.4577         23
  45.4762         26
  45.4948         32
  45.5134         23
  45.5320         23
  45.5505         25
  45.5691         25
  45.5877         13
  45.6063         16
  45.6248         22
  45.6434         19
  45.6620         23
  45.6806         28
  45.6991         27
  45.7177         31
  45.7363         23
  45.7549         26
  45.7734         29
  45.7920         26
  45.8106         21
  45.8292         24
  45.8477         20
  45.8663         21
  45.8849         30
  45.9035         31
  45.9220         24
  45.9406         19
  45.9592         26
  45.9778         28
  45.9963         32
  46.0149         32
  46.0335         18
  46.0521         21
  46.0707         22
  46.0892         29
  46.1078         10
  46.1264         19
  46.1450         22
  46.1635         25
  46.1821         27
  46.2007         22
  46.2193         20
  46.2378         22
  46.2564         23
  46.2750         19
  46.2936         31
  46.3121         27
  46.3307         25
  46.3493         22
  46.3679         27
  46.3864         30
  46.4050         26
  46.4236         30
  46.4422         23
  46.4607         23
  46.4793         32
  46.4979         26
  46.5165         23
  46.5350         29
  46.5536         26
  46.5722         30
  46.5908         24
  46.6093         25
  46.6279         30
  46.6465         23
  46.6651         27
  46.6836         31
  46.7022         26
  46.7208         21
  46.7394         19
  46.7579         25
  46.7765         29
  46.7951         17
  46.8137         25
  46.8323         28
  46.8508         35
  46.8694         22
  46.8880         25
  46.9066         30
  46.9251         25
  46.9437         24
  46.9623         26
  46.9809         25
  46.9994         27
  47.0180         18
  47.0366         29
  47.0552         24
  47.0737         20
  47.0923         24
  47.1109         24
  47.1295         19
  47.1480         32
  47.1666         16
  47.1852         22
  47.2038         18
  47.2223         29
  47.2409         28
  47.2595         26
  47.2781         17
  47.2966         22
  47.3152         26
  47.3338         15
  47.3524         17
  47.3709         26
  47.3895         28
  47.4081         18
  47.4267         18
  47.4452         30
  47.4638         23
  47.4824         29
  47.5010         22
  47.5195         29
  47.5381         20
  47.5567         15
  47.5753         25
  47.5939         21
  47.6124         21
  47.6310         26
  47.6496         24
  47.6682         23
  47.6867         16
  47.7053         17
  47.7239         25
  47.7425         18
  47.7610         19
  47.7796         24
  47.7982         21
  47.8168         25
  47.8353         15
  47.8539         21
  47.8725         17
  47.8911         22
  47.9096         19
  47.9282         20
  47.9468         23
  47.9654         26
  47.9839         20
  48.0025         27
  48.0211         22
  48.0397         19
  48.0582         12
  48.0768         22
  48.0954         24
  48.1140         23
  48.1325         19
  48.1511         17
  48.1697         14
  48.1883         28
  48.2068         32
  48.2254         23
  48.2440          9
  48.2626         23
  48.2811         15
  48.2997         29
  48.3183         26
  48.3369         21
  48.3555         27
  48.3740         17
  48.3926         20
  48.4112         19
  48.4298         17
  48.4483         18
  48.4669         25
  48.4855         27
  48.5041         15
  48.5226         23
  48.5412         19
  48.5598         22
  48.5784         19
  48.5969         25
  48.6155         21
  48.6341         29
  48.6527         16
  48.6712         28
  48.6898         28
  48.7084         21
  48.7270         18
  48.7455         24
  48.7641         18
  48.7827         28
  48.8013         27
  48.8198         22
  48.8384         22
  48.8570         23
  48.8756         28
  48.8941         32
  48.9127         36
  48.9313         35
  48.9499         42
  48.9684         51
  48.9870         36
  49.0056         35
  49.0242         31
  49.0427         30
  49.0613         39
  49.0799         40
  49.0985         37
  49.1171         26
  49.1356         29
  49.1542         34
  49.1728         23
  49.1914         16
  49.2099         24
  49.2285         21
  49.2471         33
  49.2657         25
  49.2842         25
  49.3028         24
  49.3214         33
  49.3400         23
  49.3585         19
  49.3771         21
  49.3957         24
  49.4143         28
  49.4328         23
  49.4514         19
  49.4700         20
  49.4886         21
  49.5071         18
  49.5257         26
  49.5443         25
  49.5629         18
  49.5814         21
  49.6000         20
  49.6186         21
  49.6372         21
  49.6557         28
  49.6743         32
  49.6929         22
  49.7115         21
  49.7300         25
  49.7486         24
  49.7672         31
  49.7858         33
  49.8043         13
  49.8229         30
  49.8415         20
  49.8601         25
  49.8786         20
  49.8972         23
  49.9158         18
  49.9344         21
  49.9530         17
  49.9715         20
  49.9901         22
  50.0087         24
  50.0273         23
  50.0458         28
  50.0644         25
  50.0830         23
  50.1016         22
  50.1201         18
  50.1387         20
  50.1573         15
  50.1759         24
  50.1944         23
  50.2130         27
  50.2316         23
  50.2502         27
  50.2687         19
  50.2873         20
  50.3059         26
  50.3245         28
  50.3430         26
  50.3616         20
  50.3802         27
  50.3988         21
  50.4173         16
  50.4359         26
  50.4545         24
  50.4731         19
  50.4916         24
  50.5102         27
  50.5288         21
  50.5474         24
  50.5659         18
  50.5845         27
  50.6031         23
  50.6217         28
  50.6402         19
  50.6588         27
  50.6774         23
  50.6960         25
  50.7146         24
  50.7331         27
  50.7517         26
  50.7703         32
  50.7889         22
  50.8074         16
  50.8260         24
  50.8446         24
  50.8632         23
  50.8817         21
  50.9003         23
  50.9189         24
  50.9375         26
  50.9560         21
  50.9746         18
  50.9932         19
  51.0118         26
  51.0303         23
  51.0489         18
  51.0675         19
  51.0861         31
  51.1046         23
  51.1232         19
  51.1418         16
  51.1604         18
  51.1789         35
  51.1975         29
  51.2161         19
  51.2347         26
  51.2532         19
  51.2718         22
  51.2904         19
  51.3090         28
  51.3275         20
  51.3461         26
  51.3647         19
  51.3833         23
  51.4018         27
  51.4204         24
  51.4390         23
  51.4576         18
  51.4762         24
  51.4947         24
  51.5133         24
  51.5319         21
  51.5505         20
  51.5690         25
  51.5876         19
  51.6062         24
  51.6248         25
  51.6433         24
  51.6619         27
  51.6805         21
  51.6991         25
  51.7176         25
  51.7362         27
  51.7548         27
  51.7734         19
  51.7919         26
  51.8105         19
  51.8291         19
  51.8477         22
  51.8662         16
  51.8848         17
  51.9034         23
  51.9220         26
  51.9405         30
  51.9591         24
  51.9777         25
  51.9963         26
  52.0148         27
  52.0334         31
  52.0520         27
  52.0706         24
  52.0891         28
  52.1077         21
  52.1263         21
  52.1449         19
  52.1634         27
  52.1820         20
  52.2006         26
  52.2192         29
  52.2378         22
  52.2563         19
  52.2749         19
  52.2935         22
  52.3121         18
  52.3306         17
  52.3492         21
  52.3678         20
  52.3864         19
  52.4049         26
  52.4235         33
  52.4421         25
  52.4607         18
  52.4792         15
  52.4978         23
  52.5164         19
  52.5350         22
  52.5535         16
  52.5721         15
  52.5907         26
  52.6093         15
  52.6278         19
  52.6464         15
  52.6650         23
  52.6836         27
  52.7021         21
  52.7207         19
  52.7393         17
  52.7579         17
  52.7764         15
  52.7950         22
  52.8136         21
  52.8322         24
  52.8507         21
  52.8693         21
  52.8879         21
  52.9065         23
  52.9250         23
  52.9436         19
  52.9622         18
  52.9808         20
  52.9994         26
  53.0179         28
  53.0365         21
  53.0551         28
  53.0737         20
  53.0922         30
  53.1108         28
  53.1294         32
  53.1480         13
  53.1665         16
  53.1851         18
  53.2037         21
  53.2223         19
  53.2408         20
  53.2594         19
  53.2780         16
  53.2966         25
  53.3151         21
  53.3337         28
  53.3523         17
  53.3709         14
  53.3894         25
  53.4080         15
  53.4266         16
  53.4452         18
  53.4637         22
  53.4823         19
  53.5009         21
  53.5195         28
  53.5380         16
  53.5566         28
  53.5752         26
  53.5938         21
  53.6123         22
  53.6309         24
  53.6495         17
  53.6681         19
  53.6866         33
  53.7052         18
  53.7238         27
  53.7424         21
  53.7610         22
  53.7795         15
  53.7981         24
  53.8167         25
  53.8353         23
  53.8538         25
  53.8724         29
  53.8910         16
  53.9096         19
  53.9281         28
  53.9467         29
  53.9653         21
  53.9839         27
  54.0024         27
  54.0210         25
  54.0396         30
  54.0582         23
  54.0767         23
  54.0953         15
  54.1139         27
  54.1325         23
  54.1510         26
  54.1696         25
  54.1882         27
  54.2068         20
  54.2253         16
  54.2439         25
  54.2625         17
  54.2811         26
  54.2996         19
  54.3182         18
  54.3368         17
  54.3554         23
  54.3739         29
  54.3925         20
  54.4111         22
  54.4297         16
  54.4482         26
  54.4668         26
  54.4854         11
  54.5040         27
  54.5225         25
  54.5411         29
  54.5597         20
  54.5783         14
  54.5969         25
  54.6154         14
  54.6340         25
  54.6526         24
  54.6712         24
  54.6897         22
  54.7083         20
  54.7269         26
  54.7455         20
  54.7640         18
  54.7826         19
  54.8012         15
  54.8198         19
  54.8383         21
  54.8569         21
  54.8755         23
  54.8941         23
  54.9126         16
  54.9312         19
  54.9498         13
  54.9684         22
  54.9869         21
  55.0055         21
  55.0241         19
  55.0427         22
  55.0612         16
  55.0798         25
  55.0984         19
  55.1170         19
  55.1355         26
  55.1541         21
  55.1727         20
  55.1913         17
  55.2098         19
  55.2284         24
  55.2470         21
  55.2656         20
  55.2841         20
  55.3027         15
  55.3213         31
  55.3399         15
  55.3585         14
  55.3770         21
  55.3956         18
  55.4142         18
  55.4328         23
  55.4513         17
  55.4699         21
  55.4885         22
  55.5071         26
  55.5256         21
  55.5442         19
  55.5628         15
  55.5814         25
  55.5999         21
  55.6185         28
  55.6371         24
  55.6557         25
  55.6742         21
  55.6928         35
  55.7114         26
  55.7300         22
  55.7485         24
  55.7671         15
  55.7857         20
  55.8043         22
  55.8228         16
  55.8414         25
  55.8600         28
  55.8786         31
  55.8971         20
  55.9157         16
  55.9343         23
  55.9529         16
  55.9714         25
  55.9900         26
  56.0086         25
  56.0272         17
  56.0457         26
  56.0643         17
  56.0829         20
  56.1015         19
  56.1201         23
  56.1386         18
  56.1572         19
  56.1758         26
  56.1944         24
  56.2129         23
  56.2315         29
  56.2501         20
  56.2687         20
  56.2872         19
  56.3058         21
  56.3244         34
  56.3430         32
  56.3615         18
  56.3801         25
  56.3987         24
  56.4173         21
  56.4358         24
  56.4544         24
  56.4730         16
  56.4916         21
  56.5101         22
  56.5287         21
  56.5473         20
  56.5659         23
  56.5844         18
  56.6030         18
  56.6216         22
  56.6402         16
  56.6587         19
  56.6773         24
  56.6959         21
  56.7145         27
  56.7330         15
  56.7516         19
  56.7702         21
  56.7888         14
  56.8073         14
  56.8259         19
  56.8445         14
  56.8631         18
  56.8817         21
  56.9002         18
  56.9188         12
  56.9374         27
  56.9560         20
  56.9745         20
  56.9931         17
  57.0117         17
  57.0303         23
  57.0488         21
  57.0674         16
  57.0860         22
  57.1046         22
  57.1231         21
  57.1417         13
  57.1603         25
  57.1789         24
  57.1974         20
  57.2160         24
  57.2346         21
  57.2532         18
  57.2717         17
  57.2903         11
  57.3089          8
  57.3275         14
  57.3460         13
  57.3646         13
  57.3832         20
  57.4018         23
  57.4203         16
  57.4389         19
  57.4575         17
  57.4761         22
  57.4946         27
  57.5132         17
  57.5318         19
  57.5504         21
  57.5689         18
  57.5875         15
  57.6061         18
  57.6247         21
  57.6433         22
  57.6618         20
  57.6804         15
  57.6990         18
  57.7176         20
  57.7361         14
  57.7547         15
  57.7733         25
  57.7919         23
  57.8104         15
  57.8290         18
  57.8476         22
  57.8662         15
  57.8847         18
  57.9033         20
  57.9219         21
  57.9405         20
  57.9590         29
  57.9776         13
  57.9962         18
  58.0148         18
  58.0333         13
  58.0519         22
  58.0705         25
  58.0891         14
  58.1076         22
  58.1262         26
  58.1448         13
  58.1634         16
  58.1819         26
  58.2005         15
  58.2191         22
  58.2377         21
  58.2562         19
  58.2748         20
  58.2934         26
  58.3120         16
  58.3305         22
  58.3491         18
  58.3677         26
  58.3863         18
  58.4049         23
  58.4234         19
  58.4420         14
  58.4606         22
  58.4792         24
  58.4977         19
  58.5163         21
  58.5349         20
  58.5535         25
  58.5720         33
  58.5906         27
  58.6092         19
  58.6278         18
  58.6463         23
  58.6649         26
  58.6835         25
  58.7021         24
  58.7206         18
  58.7392         20
  58.7578         15
  58.7764         19
  58.7949         23
  58.8135         18
  58.8321         29
  58.8507         22
  58.8692         18
  58.8878         26
  58.9064         22
  58.9250         21
  58.9435         21
  58.9621         17
  58.9807         17
  58.9993         18
  59.0178         21
  59.0364         21
  59.0550         25
  59.0736         12
  59.0921         19
  59.1107         14
  59.1293         19
  59.1479         23
  59.1664         23
  59.1850         29
  59.2036         25
  59.2222         21
  59.2408         22
  59.2593         16
  59.2779         21
  59.2965         19
  59.3151         20
  59.3336         16
  59.3522         23
  59.3708         24
  59.3894         14
  59.4079         22
  59.4265         14
  59.4451         15
  59.4637         22
  59.4822         22
  59.5008         18
  59.5194         19
  59.5380         20
  59.5565         17
  59.5751         21
  59.5937         23
  59.6123         26
  59.6308         15
  59.6494         23
  59.6680         24
  59.6866         18
  59.7051         15
  59.7237         19
  59.7423         22
  59.7609         14
  59.7794         17
  59.7980         18
  59.8166         26
  59.8352         18
  59.8537         17
  59.8723         14
  59.8909         27
  59.9095         20
  59.9280         19
  59.9466         19
  59.9652         19
  59.9838         21
  60.0024         21
