; (content of file Y:\Sam\Apurva-07-20-2022\puck4\ML_20220718_19_SJD_0_LaB6-2min.raw)
_FILEVERSION = 3
_SAMPLE = ML_20220718_19_SJD_0_LaB6-2min
_+SAMPLE = 
_SITE = USA
_USER = Administrator
_GONIOMETER_CODE = 20
; Goniometer : D8 theta/2theta, stage : Unknown
_ATTACHMENTS_CODE = 0
_GONIOMETER_RADIUS = 200.5
_FIXED_DIVSLIT = 0.6
_FIXED_SAMPLESLIT = 0
_SOLLER_SLITS = 2
_FIXED_DETSLIT = 9.55
_MONOCHROMATOR = 0
; Incident beam monochromator : None
_SOLLER_SLITS_2 = N
_THIN_FILM = N
_BETA_FILTER = Y
_FIXED_ANTISLIT = 5.89
_ANALYZER_CODE = 0
; Received beam analyzer : None
_DATEMEASURED = "26-Jul-2022 09:39:54"
_WL_UNIT = A
_WL1 = 1.5406
_WL2 = 1.54439
_WL3 = 1.39222
_WLRATIO = 0.5
_ANODE = Cu
_V4_INF_CREATOR = XRDWizard
_V4_INF_CREATOR_VERSION = V2.9.0.22
_V4_INF_WIZARD_VERSION = V2.9.0.22
_V4_INF_WIZARD_ADDINS = V2.9.0.22
_V4_INF_WIZARD_DOCTYPE = XRD
_V4_INF_OSUSER = McQueenLab
_V4_INF_USER = Administrator
_V4_INF_SITE = USA
_V4_INF_SAMPLEID = ML_20220718_19_SJD_0_LaB6-2min

; Data for range 1
_DRIVE = COUPLED
_STEPTIME = 5.64
_STEPSIZE = 0.0185756
_STEPMODE = C
_START = 5
_THETA = 2.5
_2THETA = 5
_KHI = 0
_PHI = 0
_X = 0
_Y = 0
_Z = 0
_DETECTOR = 5
; Detector type : Unknown
_DETECTORSLIT = unkn
_AUX1 = 0
_AUX2 = 0
_AUX3 = 0
_TIMESTARTED = 14
_TEMP_RATE = -1
_TEMP_DELAY = -1
_KV = 40
_MA = 40
_RANGE_WL = 1.5406
_3DPLANE = 0
_V4_ADDITIONALDETECTOR = 257
_V4_PSD2THETA = 3.4228
_V4_PSDCHANNEL1 = 0
_V4_PSDAPERTURE = 12.68
_V4_PSDTYPE = 5
_V4_PSDFIXED = 0
_V4_COUNTERS_MASK = 4096
_V4_DRIVES_MASK = 0
_V4_ENCODERS_MASK = 0
_2THETACOUNTS = 1
; 2THETA  PSD
   5.0000        146
   5.0186        134
   5.0372        117
   5.0557        152
   5.0743        142
   5.0929        117
   5.1115        112
   5.1300        116
   5.1486        120
   5.1672        115
   5.1858        133
   5.2043        124
   5.2229        132
   5.2415        107
   5.2601        134
   5.2786        109
   5.2972        111
   5.3158        117
   5.3344        116
   5.3529        117
   5.3715        129
   5.3901        116
   5.4087        124
   5.4272        133
   5.4458        118
   5.4644        110
   5.4830        101
   5.5015        118
   5.5201        108
   5.5387        112
   5.5573        130
   5.5758        101
   5.5944        125
   5.6130        107
   5.6316        105
   5.6501        114
   5.6687        103
   5.6873        100
   5.7059        110
   5.7244        109
   5.7430         83
   5.7616        111
   5.7802         86
   5.7988        123
   5.8173        133
   5.8359        104
   5.8545        108
   5.8731        101
   5.8916         78
   5.9102        107
   5.9288        126
   5.9474        102
   5.9659        104
   5.9845        118
   6.0031        113
   6.0217         85
   6.0402        103
   6.0588         91
   6.0774         94
   6.0960         96
   6.1145         94
   6.1331         79
   6.1517         76
   6.1703         67
   6.1888        104
   6.2074         86
   6.2260        100
   6.2446         95
   6.2631         90
   6.2817        100
   6.3003         99
   6.3189         96
   6.3374         96
   6.3560        100
   6.3746         86
   6.3932         88
   6.4117         92
   6.4303         97
   6.4489         85
   6.4675         99
   6.4860         97
   6.5046         91
   6.5232        108
   6.5418         82
   6.5604         84
   6.5789         96
   6.5975        118
   6.6161         81
   6.6347         95
   6.6532         93
   6.6718         89
   6.6904         90
   6.7090         80
   6.7275         83
   6.7461         86
   6.7647         86
   6.7833         84
   6.8018         83
   6.8204        103
   6.8390         91
   6.8576         85
   6.8761         77
   6.8947        100
   6.9133         58
   6.9319         90
   6.9504         68
   6.9690         74
   6.9876         83
   7.0062         80
   7.0247         76
   7.0433         77
   7.0619         74
   7.0805         87
   7.0990         75
   7.1176         83
   7.1362         76
   7.1548         76
   7.1733         81
   7.1919         80
   7.2105         73
   7.2291         74
   7.2476         79
   7.2662         73
   7.2848         79
   7.3034         78
   7.3220         66
   7.3405         70
   7.3591         80
   7.3777         80
   7.3963         87
   7.4148         87
   7.4334         93
   7.4520         95
   7.4706         91
   7.4891         92
   7.5077         87
   7.5263         78
   7.5449         80
   7.5634         75
   7.5820         83
   7.6006         86
   7.6192         80
   7.6377         80
   7.6563         98
   7.6749         95
   7.6935         95
   7.7120         70
   7.7306         90
   7.7492         70
   7.7678        105
   7.7863         77
   7.8049         73
   7.8235         78
   7.8421         93
   7.8606         83
   7.8792         78
   7.8978         94
   7.9164         90
   7.9349         88
   7.9535        102
   7.9721         85
   7.9907         92
   8.0092         85
   8.0278        107
   8.0464        105
   8.0650         93
   8.0835         97
   8.1021         94
   8.1207         95
   8.1393         92
   8.1579         99
   8.1764         90
   8.1950        102
   8.2136         93
   8.2322         89
   8.2507         93
   8.2693         95
   8.2879         79
   8.3065         88
   8.3250         91
   8.3436         88
   8.3622         86
   8.3808         88
   8.3993         89
   8.4179        102
   8.4365         86
   8.4551        123
   8.4736         97
   8.4922        100
   8.5108         87
   8.5294        117
   8.5479         87
   8.5665         95
   8.5851        112
   8.6037         90
   8.6222        111
   8.6408         89
   8.6594         94
   8.6780         91
   8.6965         93
   8.7151         94
   8.7337        106
   8.7523        113
   8.7708        110
   8.7894        106
   8.8080         86
   8.8266        116
   8.8451        101
   8.8637        105
   8.8823        117
   8.9009         96
   8.9195        107
   8.9380        107
   8.9566        104
   8.9752        102
   8.9938        118
   9.0123         91
   9.0309        107
   9.0495         98
   9.0681         93
   9.0866        110
   9.1052        119
   9.1238        106
   9.1424        100
   9.1609        116
   9.1795         97
   9.1981        110
   9.2167         85
   9.2352        106
   9.2538        132
   9.2724        115
   9.2910        123
   9.3095        108
   9.3281        112
   9.3467        110
   9.3653        108
   9.3838        118
   9.4024         97
   9.4210        110
   9.4396        121
   9.4581        110
   9.4767        113
   9.4953        104
   9.5139        114
   9.5324        118
   9.5510        121
   9.5696        109
   9.5882         95
   9.6067        109
   9.6253        120
   9.6439        110
   9.6625         90
   9.6811         98
   9.6996        106
   9.7182        109
   9.7368        103
   9.7554        102
   9.7739        119
   9.7925        118
   9.8111        105
   9.8297        130
   9.8482         98
   9.8668        115
   9.8854        117
   9.9040        125
   9.9225        116
   9.9411        127
   9.9597        135
   9.9783        115
   9.9968        121
  10.0154        105
  10.0340        112
  10.0526        117
  10.0711        118
  10.0897        114
  10.1083        101
  10.1269        126
  10.1454        139
  10.1640        118
  10.1826         99
  10.2012        110
  10.2197        114
  10.2383        115
  10.2569        111
  10.2755        111
  10.2940        121
  10.3126        126
  10.3312        118
  10.3498        131
  10.3683        109
  10.3869        118
  10.4055        121
  10.4241        128
  10.4427        115
  10.4612        132
  10.4798        123
  10.4984        117
  10.5170        131
  10.5355        127
  10.5541        133
  10.5727        119
  10.5913        103
  10.6098        117
  10.6284        137
  10.6470         97
  10.6656        132
  10.6841        106
  10.7027        120
  10.7213        100
  10.7399        127
  10.7584        116
  10.7770        134
  10.7956        111
  10.8142        109
  10.8327         93
  10.8513        112
  10.8699        131
  10.8885        113
  10.9070        106
  10.9256        107
  10.9442        124
  10.9628        106
  10.9813        123
  10.9999        126
  11.0185        129
  11.0371        122
  11.0556        121
  11.0742        121
  11.0928        126
  11.1114        108
  11.1299        112
  11.1485        135
  11.1671        123
  11.1857        110
  11.2043        105
  11.2228        127
  11.2414        111
  11.2600        103
  11.2786        116
  11.2971        118
  11.3157        118
  11.3343        114
  11.3529        107
  11.3714        104
  11.3900        106
  11.4086        122
  11.4272        114
  11.4457        115
  11.4643        114
  11.4829        117
  11.5015         97
  11.5200         97
  11.5386        110
  11.5572        119
  11.5758        115
  11.5943        119
  11.6129        128
  11.6315        102
  11.6501        119
  11.6686        117
  11.6872        105
  11.7058         97
  11.7244        102
  11.7429        108
  11.7615        106
  11.7801        100
  11.7987        124
  11.8172        116
  11.8358        120
  11.8544        122
  11.8730        114
  11.8915         99
  11.9101        111
  11.9287        113
  11.9473        123
  11.9659        130
  11.9844        104
  12.0030        105
  12.0216        103
  12.0402        110
  12.0587        119
  12.0773        122
  12.0959        101
  12.1145        105
  12.1330        135
  12.1516        109
  12.1702        111
  12.1888         95
  12.2073        100
  12.2259        118
  12.2445        104
  12.2631         97
  12.2816         91
  12.3002         98
  12.3188        115
  12.3374        129
  12.3559        103
  12.3745        116
  12.3931         99
  12.4117        107
  12.4302        102
  12.4488        108
  12.4674        107
  12.4860        100
  12.5045         95
  12.5231         96
  12.5417        112
  12.5603        103
  12.5788        102
  12.5974        110
  12.6160        124
  12.6346        124
  12.6531         98
  12.6717        100
  12.6903         90
  12.7089         91
  12.7274        109
  12.7460         95
  12.7646        110
  12.7832         94
  12.8018        100
  12.8203        105
  12.8389         91
  12.8575        112
  12.8761         89
  12.8946        105
  12.9132        101
  12.9318        108
  12.9504        129
  12.9689        106
  12.9875        104
  13.0061        118
  13.0247         93
  13.0432        101
  13.0618        108
  13.0804        121
  13.0990        106
  13.1175        106
  13.1361        104
  13.1547        115
  13.1733         98
  13.1918        100
  13.2104        122
  13.2290        119
  13.2476         92
  13.2661         97
  13.2847        109
  13.3033        106
  13.3219         91
  13.3404         95
  13.3590         83
  13.3776         79
  13.3962        108
  13.4147         88
  13.4333        121
  13.4519         89
  13.4705         94
  13.4890         98
  13.5076        108
  13.5262         92
  13.5448        102
  13.5634        107
  13.5819         97
  13.6005        102
  13.6191         98
  13.6377         88
  13.6562         76
  13.6748         94
  13.6934         84
  13.7120         99
  13.7305         96
  13.7491         99
  13.7677        102
  13.7863         73
  13.8048         97
  13.8234         84
  13.8420         80
  13.8606         77
  13.8791        106
  13.8977         99
  13.9163         88
  13.9349         94
  13.9534         91
  13.9720         86
  13.9906         99
  14.0092         82
  14.0277         92
  14.0463         97
  14.0649         87
  14.0835         94
  14.1020         88
  14.1206         88
  14.1392         76
  14.1578         76
  14.1763         78
  14.1949         94
  14.2135         97
  14.2321         85
  14.2506         87
  14.2692        103
  14.2878         95
  14.3064         85
  14.3250         72
  14.3435         99
  14.3621         90
  14.3807         91
  14.3993        102
  14.4178         93
  14.4364         96
  14.4550        114
  14.4736         77
  14.4921         84
  14.5107         87
  14.5293         99
  14.5479         69
  14.5664         90
  14.5850         82
  14.6036         87
  14.6222         82
  14.6407         91
  14.6593         80
  14.6779         87
  14.6965         90
  14.7150         78
  14.7336         76
  14.7522         80
  14.7708         86
  14.7893         83
  14.8079         89
  14.8265         90
  14.8451         88
  14.8636         80
  14.8822         80
  14.9008         87
  14.9194         73
  14.9379         83
  14.9565         88
  14.9751         83
  14.9937         84
  15.0122         87
  15.0308         72
  15.0494         74
  15.0680         96
  15.0866         97
  15.1051         91
  15.1237         83
  15.1423         80
  15.1609         77
  15.1794         69
  15.1980         74
  15.2166         67
  15.2352         75
  15.2537         79
  15.2723         84
  15.2909         62
  15.3095         89
  15.3280         85
  15.3466         71
  15.3652         83
  15.3838         96
  15.4023         84
  15.4209         99
  15.4395         86
  15.4581         96
  15.4766         80
  15.4952         66
  15.5138         94
  15.5324         80
  15.5509         78
  15.5695         77
  15.5881         72
  15.6067         85
  15.6252         82
  15.6438         76
  15.6624         75
  15.6810         88
  15.6995         69
  15.7181         87
  15.7367         78
  15.7553         88
  15.7738         92
  15.7924         78
  15.8110         69
  15.8296         78
  15.8482         73
  15.8667         81
  15.8853         80
  15.9039         94
  15.9225         94
  15.9410         70
  15.9596         81
  15.9782         94
  15.9968         83
  16.0153         75
  16.0339         80
  16.0525         79
  16.0711         90
  16.0896         98
  16.1082         74
  16.1268         83
  16.1454         83
  16.1639         75
  16.1825         76
  16.2011         77
  16.2197         80
  16.2382         82
  16.2568         75
  16.2754         76
  16.2940         95
  16.3125         87
  16.3311         96
  16.3497         72
  16.3683         83
  16.3868         82
  16.4054         78
  16.4240         82
  16.4426         67
  16.4611         89
  16.4797         75
  16.4983         70
  16.5169         88
  16.5354         75
  16.5540         75
  16.5726         70
  16.5912         71
  16.6097         56
  16.6283         94
  16.6469         80
  16.6655         75
  16.6841         69
  16.7026         93
  16.7212         90
  16.7398         75
  16.7584         78
  16.7769         71
  16.7955         69
  16.8141         84
  16.8327         85
  16.8512         84
  16.8698         83
  16.8884         77
  16.9070         85
  16.9255         79
  16.9441         88
  16.9627         71
  16.9813         72
  16.9998         68
  17.0184         71
  17.0370         81
  17.0556         85
  17.0741         84
  17.0927         88
  17.1113         92
  17.1299         77
  17.1484         83
  17.1670         78
  17.1856         72
  17.2042         75
  17.2227         88
  17.2413         88
  17.2599         82
  17.2785         86
  17.2970         95
  17.3156         69
  17.3342         66
  17.3528         77
  17.3713         99
  17.3899         87
  17.4085         73
  17.4271         87
  17.4457         86
  17.4642         81
  17.4828         64
  17.5014         81
  17.5200         73
  17.5385         77
  17.5571         70
  17.5757         68
  17.5943         89
  17.6128         85
  17.6314         66
  17.6500         69
  17.6686         77
  17.6871         93
  17.7057         78
  17.7243         72
  17.7429         75
  17.7614         70
  17.7800         76
  17.7986         75
  17.8172         76
  17.8357         88
  17.8543         78
  17.8729         78
  17.8915         81
  17.9100         72
  17.9286         90
  17.9472         75
  17.9658         89
  17.9843         75
  18.0029         85
  18.0215         87
  18.0401         78
  18.0586         78
  18.0772         93
  18.0958         95
  18.1144         70
  18.1329         73
  18.1515         82
  18.1701         85
  18.1887         71
  18.2073         86
  18.2258         92
  18.2444         86
  18.2630         74
  18.2816         80
  18.3001         75
  18.3187         82
  18.3373         85
  18.3559         92
  18.3744         97
  18.3930         88
  18.4116         81
  18.4302         79
  18.4487         78
  18.4673         83
  18.4859         83
  18.5045        101
  18.5230         89
  18.5416         80
  18.5602         66
  18.5788         96
  18.5973         96
  18.6159         98
  18.6345         77
  18.6531         86
  18.6716         83
  18.6902         95
  18.7088         75
  18.7274         86
  18.7459         91
  18.7645         80
  18.7831         86
  18.8017         92
  18.8202         87
  18.8388         93
  18.8574         75
  18.8760         81
  18.8945         85
  18.9131         83
  18.9317         79
  18.9503         99
  18.9689         92
  18.9874         74
  19.0060         80
  19.0246         73
  19.0432        110
  19.0617         85
  19.0803         81
  19.0989         80
  19.1175         96
  19.1360         77
  19.1546         74
  19.1732         94
  19.1918         79
  19.2103         89
  19.2289         84
  19.2475         99
  19.2661         76
  19.2846         71
  19.3032         78
  19.3218         80
  19.3404         83
  19.3589         77
  19.3775         79
  19.3961         77
  19.4147         88
  19.4332         96
  19.4518         87
  19.4704         79
  19.4890         90
  19.5075         78
  19.5261         85
  19.5447         97
  19.5633         67
  19.5818         85
  19.6004         76
  19.6190         82
  19.6376         86
  19.6561         96
  19.6747         94
  19.6933         72
  19.7119         88
  19.7305         81
  19.7490         83
  19.7676         98
  19.7862        102
  19.8048         84
  19.8233         80
  19.8419         83
  19.8605         89
  19.8791         92
  19.8976         97
  19.9162         77
  19.9348         81
  19.9534         93
  19.9719         90
  19.9905        101
  20.0091         92
  20.0277         88
  20.0462         85
  20.0648         73
  20.0834         77
  20.1020         87
  20.1205         88
  20.1391         72
  20.1577         86
  20.1763         88
  20.1948         84
  20.2134         95
  20.2320         83
  20.2506         81
  20.2691         84
  20.2877         76
  20.3063         83
  20.3249        103
  20.3434        117
  20.3620         94
  20.3806        106
  20.3992         85
  20.4177        107
  20.4363         97
  20.4549         92
  20.4735         94
  20.4921         92
  20.5106         95
  20.5292         88
  20.5478         80
  20.5664         90
  20.5849        101
  20.6035         85
  20.6221         89
  20.6407        106
  20.6592         92
  20.6778        104
  20.6964         84
  20.7150        100
  20.7335         89
  20.7521         92
  20.7707         86
  20.7893         89
  20.8078         98
  20.8264         84
  20.8450         90
  20.8636         80
  20.8821         78
  20.9007         99
  20.9193        101
  20.9379         77
  20.9564        113
  20.9750         89
  20.9936        110
  21.0122        105
  21.0307        101
  21.0493         95
  21.0679         97
  21.0865        104
  21.1050        105
  21.1236         92
  21.1422        102
  21.1608        117
  21.1793        122
  21.1979        141
  21.2165        150
  21.2351        165
  21.2537        156
  21.2722        134
  21.2908        143
  21.3094        182
  21.3280        170
  21.3465        261
  21.3651        267
  21.3837        193
  21.4023        195
  21.4208        170
  21.4394        124
  21.4580        112
  21.4766        106
  21.4951        101
  21.5137         97
  21.5323        102
  21.5509        115
  21.5694         96
  21.5880        102
  21.6066         81
  21.6252        112
  21.6437         82
  21.6623        108
  21.6809         80
  21.6995         88
  21.7180        108
  21.7366         93
  21.7552        101
  21.7738         82
  21.7923        104
  21.8109         95
  21.8295         82
  21.8481         76
  21.8666         85
  21.8852        106
  21.9038         89
  21.9224        105
  21.9409         93
  21.9595         82
  21.9781         98
  21.9967         98
  22.0152         86
  22.0338         92
  22.0524        100
  22.0710         99
  22.0896        103
  22.1081         98
  22.1267         88
  22.1453         95
  22.1639        124
  22.1824        100
  22.2010        102
  22.2196         88
  22.2382        104
  22.2567         77
  22.2753        100
  22.2939         94
  22.3125        104
  22.3310         96
  22.3496         96
  22.3682        113
  22.3868         94
  22.4053         93
  22.4239         85
  22.4425         99
  22.4611         88
  22.4796         96
  22.4982        101
  22.5168        101
  22.5354        114
  22.5539         77
  22.5725        106
  22.5911         96
  22.6097         91
  22.6282         92
  22.6468         84
  22.6654         94
  22.6840         97
  22.7025         90
  22.7211        104
  22.7397         95
  22.7583         92
  22.7768         87
  22.7954        109
  22.8140        106
  22.8326        100
  22.8512        100
  22.8697         97
  22.8883        100
  22.9069         86
  22.9255        107
  22.9440         95
  22.9626        100
  22.9812         89
  22.9998         85
  23.0183        126
  23.0369        101
  23.0555        124
  23.0741         94
  23.0926         87
  23.1112        102
  23.1298        100
  23.1484        103
  23.1669         90
  23.1855        122
  23.2041        110
  23.2227        108
  23.2412         88
  23.2598         92
  23.2784        107
  23.2970        107
  23.3155         89
  23.3341         91
  23.3527        105
  23.3713         91
  23.3898        102
  23.4084         86
  23.4270         87
  23.4456        114
  23.4641        109
  23.4827         93
  23.5013         94
  23.5199         87
  23.5384        108
  23.5570        112
  23.5756        104
  23.5942        103
  23.6128        117
  23.6313         94
  23.6499         80
  23.6685         93
  23.6871         89
  23.7056         96
  23.7242        109
  23.7428        105
  23.7614         96
  23.7799         85
  23.7985         87
  23.8171         95
  23.8357        110
  23.8542        100
  23.8728        104
  23.8914         95
  23.9100        101
  23.9285         81
  23.9471        101
  23.9657        105
  23.9843         89
  24.0028         86
  24.0214        106
  24.0400         91
  24.0586         85
  24.0771        107
  24.0957        102
  24.1143        103
  24.1329         88
  24.1514         98
  24.1700        108
  24.1886         96
  24.2072        107
  24.2257         99
  24.2443        122
  24.2629        102
  24.2815        123
  24.3000        105
  24.3186        118
  24.3372         98
  24.3558        102
  24.3744        100
  24.3929         92
  24.4115        105
  24.4301        110
  24.4487         92
  24.4672        110
  24.4858        111
  24.5044        101
  24.5230        109
  24.5415        116
  24.5601        123
  24.5787        105
  24.5973        101
  24.6158         87
  24.6344        109
  24.6530        101
  24.6716        111
  24.6901        105
  24.7087        110
  24.7273         84
  24.7459         81
  24.7644         97
  24.7830        104
  24.8016         79
  24.8202        108
  24.8387        112
  24.8573         94
  24.8759         89
  24.8945         90
  24.9130        105
  24.9316        105
  24.9502         88
  24.9688        117
  24.9873        109
  25.0059         83
  25.0245        106
  25.0431         97
  25.0616         97
  25.0802         94
  25.0988         82
  25.1174         92
  25.1360         97
  25.1545         88
  25.1731         92
  25.1917         94
  25.2103         90
  25.2288         97
  25.2474        100
  25.2660         98
  25.2846         85
  25.3031         95
  25.3217        117
  25.3403        102
  25.3589         84
  25.3774         85
  25.3960         95
  25.4146         98
  25.4332         83
  25.4517         99
  25.4703         88
  25.4889         96
  25.5075         84
  25.5260         90
  25.5446        113
  25.5632        102
  25.5818         99
  25.6003         98
  25.6189         89
  25.6375        100
  25.6561         80
  25.6746         95
  25.6932        105
  25.7118        105
  25.7304         84
  25.7489         99
  25.7675         81
  25.7861         98
  25.8047         82
  25.8232        102
  25.8418         99
  25.8604        105
  25.8790        105
  25.8976        101
  25.9161         90
  25.9347         98
  25.9533         99
  25.9719         87
  25.9904        100
  26.0090         92
  26.0276        100
  26.0462        107
  26.0647         92
  26.0833        101
  26.1019        102
  26.1205         78
  26.1390         88
  26.1576         97
  26.1762        103
  26.1948         84
  26.2133         89
  26.2319        104
  26.2505         91
  26.2691        103
  26.2876         89
  26.3062         72
  26.3248         80
  26.3434        106
  26.3619         85
  26.3805         92
  26.3991         95
  26.4177        101
  26.4362         87
  26.4548        106
  26.4734         96
  26.4920        110
  26.5105        101
  26.5291         89
  26.5477         94
  26.5663         98
  26.5848         94
  26.6034        100
  26.6220         95
  26.6406         77
  26.6591         90
  26.6777         89
  26.6963        103
  26.7149         89
  26.7335         97
  26.7520         83
  26.7706         97
  26.7892         83
  26.8078         94
  26.8263         90
  26.8449         96
  26.8635         98
  26.8821         77
  26.9006         76
  26.9192         96
  26.9378         89
  26.9564        104
  26.9749         97
  26.9935         97
  27.0121         96
  27.0307         98
  27.0492         77
  27.0678        102
  27.0864         97
  27.1050        106
  27.1235         85
  27.1421         98
  27.1607        102
  27.1793        119
  27.1978        118
  27.2164        129
  27.2350        131
  27.2536        117
  27.2721         93
  27.2907        105
  27.3093         96
  27.3279        111
  27.3464         88
  27.3650        110
  27.3836         90
  27.4022         99
  27.4207        112
  27.4393         93
  27.4579         79
  27.4765         96
  27.4951         89
  27.5136         86
  27.5322         86
  27.5508         79
  27.5694         75
  27.5879         81
  27.6065         92
  27.6251         72
  27.6437         83
  27.6622        102
  27.6808         95
  27.6994         97
  27.7180         74
  27.7365         93
  27.7551         84
  27.7737         98
  27.7923         96
  27.8108         88
  27.8294        100
  27.8480         85
  27.8666         79
  27.8851         89
  27.9037         78
  27.9223         83
  27.9409         77
  27.9594         97
  27.9780         70
  27.9966         93
  28.0152         75
  28.0337         91
  28.0523         87
  28.0709         79
  28.0895         79
  28.1080         81
  28.1266        106
  28.1452         79
  28.1638         95
  28.1823         91
  28.2009        102
  28.2195         99
  28.2381         92
  28.2567        109
  28.2752         70
  28.2938         95
  28.3124         76
  28.3310         73
  28.3495         90
  28.3681         98
  28.3867         70
  28.4053         84
  28.4238         93
  28.4424         81
  28.4610         87
  28.4796         81
  28.4981         80
  28.5167         87
  28.5353         95
  28.5539         81
  28.5724         87
  28.5910         75
  28.6096         84
  28.6282         85
  28.6467         90
  28.6653         75
  28.6839         87
  28.7025         58
  28.7210         71
  28.7396         89
  28.7582         76
  28.7768         81
  28.7953         75
  28.8139         91
  28.8325         89
  28.8511         92
  28.8696         76
  28.8882         71
  28.9068         79
  28.9254         77
  28.9439         79
  28.9625         95
  28.9811         76
  28.9997         79
  29.0183         78
  29.0368         70
  29.0554         80
  29.0740        101
  29.0926         73
  29.1111         90
  29.1297         92
  29.1483         85
  29.1669         76
  29.1854         86
  29.2040         79
  29.2226         68
  29.2412         88
  29.2597         75
  29.2783         92
  29.2969         84
  29.3155         72
  29.3340         80
  29.3526         79
  29.3712         79
  29.3898         82
  29.4083         72
  29.4269        111
  29.4455         80
  29.4641         76
  29.4826         86
  29.5012         83
  29.5198         86
  29.5384         69
  29.5569         98
  29.5755         80
  29.5941         62
  29.6127         73
  29.6312         91
  29.6498         75
  29.6684         78
  29.6870         93
  29.7055         87
  29.7241         70
  29.7427         70
  29.7613         74
  29.7799         71
  29.7984         77
  29.8170         69
  29.8356         89
  29.8542         90
  29.8727         91
  29.8913         78
  29.9099         66
  29.9285         72
  29.9470         74
  29.9656         73
  29.9842         78
  30.0028         88
  30.0213         87
  30.0399         81
  30.0585         74
  30.0771         81
  30.0956         78
  30.1142         67
  30.1328         88
  30.1514         90
  30.1699         82
  30.1885         73
  30.2071         76
  30.2257         75
  30.2442         69
  30.2628         80
  30.2814         86
  30.3000         76
  30.3185         71
  30.3371        118
  30.3557        111
  30.3743        167
  30.3928        171
  30.4114        130
  30.4300        102
  30.4486        118
  30.4671        142
  30.4857        110
  30.5043         82
  30.5229         89
  30.5415         82
  30.5600         82
  30.5786         93
  30.5972         91
  30.6158         80
  30.6343         72
  30.6529         69
  30.6715         82
  30.6901         89
  30.7086         78
  30.7272         64
  30.7458         65
  30.7644         60
  30.7829         62
  30.8015         66
  30.8201         75
  30.8387         67
  30.8572         74
  30.8758         74
  30.8944         62
  30.9130         76
  30.9315         66
  30.9501         55
  30.9687         70
  30.9873         69
  31.0058         68
  31.0244         68
  31.0430         67
  31.0616         79
  31.0801         64
  31.0987         66
  31.1173         74
  31.1359         83
  31.1544         69
  31.1730         84
  31.1916         70
  31.2102         66
  31.2287         56
  31.2473         69
  31.2659         60
  31.2845         85
  31.3030         55
  31.3216         68
  31.3402         72
  31.3588         65
  31.3774         82
  31.3959         60
  31.4145         69
  31.4331         61
  31.4517         57
  31.4702         72
  31.4888         61
  31.5074         80
  31.5260         70
  31.5445         57
  31.5631         82
  31.5817         71
  31.6003         73
  31.6188         56
  31.6374         82
  31.6560         74
  31.6746         76
  31.6931         70
  31.7117         62
  31.7303         76
  31.7489         63
  31.7674         66
  31.7860         53
  31.8046         56
  31.8232         75
  31.8417         72
  31.8603         67
  31.8789         56
  31.8975         76
  31.9160         69
  31.9346         65
  31.9532         68
  31.9718         70
  31.9903         64
  32.0089         65
  32.0275         67
  32.0461         58
  32.0646         68
  32.0832         63
  32.1018         58
  32.1204         74
  32.1390         62
  32.1575         51
  32.1761         76
  32.1947         73
  32.2133         74
  32.2318         64
  32.2504         74
  32.2690         81
  32.2876         63
  32.3061         74
  32.3247         70
  32.3433         65
  32.3619         66
  32.3804         76
  32.3990         62
  32.4176         70
  32.4362         73
  32.4547         79
  32.4733         65
  32.4919         88
  32.5105         86
  32.5290         79
  32.5476         69
  32.5662         67
  32.5848         75
  32.6033         76
  32.6219         56
  32.6405         61
  32.6591         69
  32.6776         63
  32.6962         59
  32.7148         70
  32.7334         56
  32.7519         63
  32.7705         64
  32.7891         57
  32.8077         64
  32.8262         61
  32.8448         48
  32.8634         64
  32.8820         71
  32.9006         68
  32.9191         72
  32.9377         59
  32.9563         60
  32.9749         75
  32.9934         61
  33.0120         66
  33.0306         60
  33.0492         51
  33.0677         58
  33.0863         77
  33.1049         62
  33.1235         71
  33.1420         51
  33.1606         57
  33.1792         62
  33.1978         53
  33.2163         55
  33.2349         58
  33.2535         57
  33.2721         44
  33.2906         65
  33.3092         52
  33.3278         54
  33.3464         67
  33.3649         52
  33.3835         59
  33.4021         61
  33.4207         65
  33.4392         67
  33.4578         61
  33.4764         65
  33.4950         57
  33.5135         58
  33.5321         64
  33.5507         54
  33.5693         73
  33.5878         55
  33.6064         47
  33.6250         49
  33.6436         55
  33.6622         57
  33.6807         45
  33.6993         56
  33.7179         49
  33.7365         51
  33.7550         56
  33.7736         69
  33.7922         54
  33.8108         61
  33.8293         66
  33.8479         67
  33.8665         49
  33.8851         47
  33.9036         58
  33.9222         71
  33.9408         64
  33.9594         52
  33.9779         52
  33.9965         51
  34.0151         48
  34.0337         69
  34.0522         60
  34.0708         61
  34.0894         64
  34.1080         55
  34.1265         66
  34.1451         45
  34.1637         48
  34.1823         46
  34.2008         55
  34.2194         46
  34.2380         66
  34.2566         49
  34.2751         57
  34.2937         41
  34.3123         69
  34.3309         53
  34.3494         51
  34.3680         63
  34.3866         65
  34.4052         66
  34.4238         58
  34.4423         53
  34.4609         53
  34.4795         56
  34.4981         68
  34.5166         61
  34.5352         48
  34.5538         47
  34.5724         55
  34.5909         54
  34.6095         67
  34.6281         73
  34.6467         56
  34.6652         65
  34.6838         72
  34.7024         50
  34.7210         82
  34.7395         79
  34.7581         68
  34.7767         94
  34.7953         68
  34.8138         89
  34.8324         82
  34.8510         76
  34.8696         55
  34.8881         66
  34.9067         70
  34.9253         49
  34.9439         62
  34.9624         44
  34.9810         49
  34.9996         50
  35.0182         55
  35.0367         63
  35.0553         59
  35.0739         58
  35.0925         56
  35.1110         44
  35.1296         43
  35.1482         40
  35.1668         46
  35.1854         57
  35.2039         49
  35.2225         49
  35.2411         42
  35.2597         50
  35.2782         34
  35.2968         54
  35.3154         54
  35.3340         45
  35.3525         52
  35.3711         44
  35.3897         38
  35.4083         60
  35.4268         58
  35.4454         49
  35.4640         53
  35.4826         43
  35.5011         60
  35.5197         57
  35.5383         47
  35.5569         47
  35.5754         52
  35.5940         52
  35.6126         50
  35.6312         63
  35.6497         55
  35.6683         59
  35.6869         38
  35.7055         60
  35.7240         35
  35.7426         44
  35.7612         67
  35.7798         43
  35.7983         46
  35.8169         40
  35.8355         39
  35.8541         48
  35.8726         39
  35.8912         39
  35.9098         46
  35.9284         48
  35.9469         59
  35.9655         44
  35.9841         62
  36.0027         47
  36.0213         43
  36.0398         45
  36.0584         51
  36.0770         53
  36.0956         50
  36.1141         43
  36.1327         59
  36.1513         51
  36.1699         72
  36.1884         41
  36.2070         54
  36.2256         42
  36.2442         47
  36.2627         47
  36.2813         49
  36.2999         44
  36.3185         47
  36.3370         51
  36.3556         57
  36.3742         45
  36.3928         47
  36.4113         44
  36.4299         45
  36.4485         34
  36.4671         44
  36.4856         57
  36.5042         45
  36.5228         43
  36.5414         47
  36.5599         42
  36.5785         43
  36.5971         41
  36.6157         45
  36.6342         59
  36.6528         51
  36.6714         60
  36.6900         51
  36.7085         40
  36.7271         61
  36.7457         39
  36.7643         34
  36.7829         37
  36.8014         36
  36.8200         63
  36.8386         44
  36.8572         39
  36.8757         52
  36.8943         43
  36.9129         50
  36.9315         41
  36.9500         43
  36.9686         38
  36.9872         51
  37.0058         49
  37.0243         49
  37.0429         53
  37.0615         33
  37.0801         48
  37.0986         56
  37.1172         48
  37.1358         51
  37.1544         41
  37.1729         48
  37.1915         40
  37.2101         53
  37.2287         45
  37.2472         44
  37.2658         40
  37.2844         41
  37.3030         47
  37.3215         46
  37.3401         46
  37.3587         47
  37.3773         62
  37.3958         39
  37.4144         62
  37.4330         76
  37.4516         81
  37.4701         71
  37.4887         51
  37.5073         61
  37.5259         59
  37.5445         66
  37.5630         45
  37.5816         45
  37.6002         55
  37.6188         51
  37.6373         43
  37.6559         52
  37.6745         39
  37.6931         48
  37.7116         44
  37.7302         35
  37.7488         42
  37.7674         35
  37.7859         30
  37.8045         69
  37.8231         44
  37.8417         41
  37.8602         47
  37.8788         36
  37.8974         35
  37.9160         36
  37.9345         31
  37.9531         45
  37.9717         33
  37.9903         42
  38.0088         40
  38.0274         44
  38.0460         47
  38.0646         41
  38.0831         48
  38.1017         32
  38.1203         45
  38.1389         41
  38.1574         38
  38.1760         50
  38.1946         50
  38.2132         42
  38.2317         44
  38.2503         36
  38.2689         40
  38.2875         36
  38.3061         52
  38.3246         28
  38.3432         32
  38.3618         28
  38.3804         35
  38.3989         51
  38.4175         55
  38.4361         44
  38.4547         35
  38.4732         29
  38.4918         36
  38.5104         41
  38.5290         29
  38.5475         41
  38.5661         47
  38.5847         40
  38.6033         38
  38.6218         41
  38.6404         39
  38.6590         38
  38.6776         42
  38.6961         36
  38.7147         45
  38.7333         28
  38.7519         41
  38.7704         48
  38.7890         45
  38.8076         43
  38.8262         51
  38.8447         40
  38.8633         65
  38.8819         46
  38.9005         38
  38.9190         44
  38.9376         43
  38.9562         42
  38.9748         35
  38.9933         46
  39.0119         48
  39.0305         38
  39.0491         40
  39.0677         33
  39.0862         45
  39.1048         37
  39.1234         34
  39.1420         34
  39.1605         56
  39.1791         39
  39.1977         41
  39.2163         43
  39.2348         35
  39.2534         43
  39.2720         46
  39.2906         46
  39.3091         47
  39.3277         39
  39.3463         42
  39.3649         49
  39.3834         43
  39.4020         36
  39.4206         42
  39.4392         44
  39.4577         37
  39.4763         48
  39.4949         45
  39.5135         42
  39.5320         42
  39.5506         49
  39.5692         28
  39.5878         40
  39.6063         34
  39.6249         35
  39.6435         47
  39.6621         36
  39.6806         47
  39.6992         46
  39.7178         30
  39.7364         25
  39.7549         40
  39.7735         45
  39.7921         29
  39.8107         35
  39.8293         38
  39.8478         28
  39.8664         33
  39.8850         36
  39.9036         46
  39.9221         43
  39.9407         38
  39.9593         38
  39.9779         29
  39.9964         38
  40.0150         31
  40.0336         52
  40.0522         45
  40.0707         41
  40.0893         34
  40.1079         28
  40.1265         36
  40.1450         35
  40.1636         50
  40.1822         44
  40.2008         35
  40.2193         42
  40.2379         38
  40.2565         52
  40.2751         34
  40.2936         34
  40.3122         50
  40.3308         29
  40.3494         39
  40.3679         36
  40.3865         29
  40.4051         37
  40.4237         43
  40.4422         38
  40.4608         41
  40.4794         29
  40.4980         29
  40.5165         45
  40.5351         50
  40.5537         36
  40.5723         41
  40.5908         44
  40.6094         50
  40.6280         45
  40.6466         27
  40.6652         43
  40.6837         38
  40.7023         38
  40.7209         45
  40.7395         26
  40.7580         28
  40.7766         36
  40.7952         35
  40.8138         42
  40.8323         47
  40.8509         40
  40.8695         44
  40.8881         36
  40.9066         45
  40.9252         34
  40.9438         33
  40.9624         43
  40.9809         40
  40.9995         36
  41.0181         43
  41.0367         51
  41.0552         46
  41.0738         37
  41.0924         51
  41.1110         28
  41.1295         43
  41.1481         45
  41.1667         42
  41.1853         44
  41.2038         37
  41.2224         32
  41.2410         37
  41.2596         33
  41.2781         42
  41.2967         50
  41.3153         34
  41.3339         41
  41.3524         34
  41.3710         43
  41.3896         34
  41.4082         37
  41.4268         43
  41.4453         51
  41.4639         34
  41.4825         34
  41.5011         38
  41.5196         43
  41.5382         36
  41.5568         35
  41.5754         30
  41.5939         45
  41.6125         25
  41.6311         32
  41.6497         38
  41.6682         41
  41.6868         32
  41.7054         47
  41.7240         27
  41.7425         31
  41.7611         35
  41.7797         41
  41.7983         48
  41.8168         35
  41.8354         36
  41.8540         43
  41.8726         45
  41.8911         44
  41.9097         40
  41.9283         34
  41.9469         42
  41.9654         38
  41.9840         34
  42.0026         40
  42.0212         31
  42.0397         26
  42.0583         53
  42.0769         38
  42.0955         41
  42.1140         36
  42.1326         38
  42.1512         34
  42.1698         51
  42.1884         32
  42.2069         35
  42.2255         36
  42.2441         26
  42.2627         29
  42.2812         37
  42.2998         39
  42.3184         44
  42.3370         34
  42.3555         37
  42.3741         40
  42.3927         46
  42.4113         47
  42.4298         41
  42.4484         29
  42.4670         44
  42.4856         31
  42.5041         30
  42.5227         39
  42.5413         52
  42.5599         44
  42.5784         26
  42.5970         46
  42.6156         29
  42.6342         40
  42.6527         37
  42.6713         26
  42.6899         39
  42.7085         33
  42.7270         45
  42.7456         47
  42.7642         31
  42.7828         36
  42.8013         35
  42.8199         36
  42.8385         35
  42.8571         36
  42.8756         27
  42.8942         40
  42.9128         39
  42.9314         31
  42.9500         33
  42.9685         48
  42.9871         46
  43.0057         34
  43.0243         33
  43.0428         40
  43.0614         39
  43.0800         31
  43.0986         35
  43.1171         38
  43.1357         35
  43.1543         28
  43.1729         43
  43.1914         43
  43.2100         37
  43.2286         55
  43.2472         46
  43.2657         42
  43.2843         42
  43.3029         45
  43.3215         40
  43.3400         34
  43.3586         41
  43.3772         30
  43.3958         47
  43.4143         44
  43.4329         48
  43.4515         43
  43.4701         53
  43.4886         58
  43.5072         75
  43.5258         53
  43.5444         54
  43.5629         57
  43.5815         49
  43.6001         55
  43.6187         49
  43.6372         48
  43.6558         40
  43.6744         54
  43.6930         45
  43.7116         37
  43.7301         48
  43.7487         37
  43.7673         28
  43.7859         45
  43.8044         39
  43.8230         33
  43.8416         37
  43.8602         39
  43.8787         36
  43.8973         24
  43.9159         30
  43.9345         32
  43.9530         31
  43.9716         36
  43.9902         28
  44.0088         26
  44.0273         32
  44.0459         44
  44.0645         32
  44.0831         38
  44.1016         33
  44.1202         35
  44.1388         35
  44.1574         35
  44.1759         34
  44.1945         39
  44.2131         42
  44.2317         31
  44.2502         35
  44.2688         33
  44.2874         40
  44.3060         30
  44.3245         27
  44.3431         41
  44.3617         39
  44.3803         33
  44.3988         33
  44.4174         40
  44.4360         40
  44.4546         37
  44.4732         46
  44.4917         33
  44.5103         51
  44.5289         27
  44.5475         36
  44.5660         37
  44.5846         47
  44.6032         28
  44.6218         40
  44.6403         42
  44.6589         43
  44.6775         45
  44.6961         34
  44.7146         46
  44.7332         41
  44.7518         41
  44.7704         47
  44.7889         40
  44.8075         43
  44.8261         32
  44.8447         36
  44.8632         44
  44.8818         27
  44.9004         38
  44.9190         37
  44.9375         31
  44.9561         28
  44.9747         37
  44.9933         41
  45.0118         30
  45.0304         38
  45.0490         36
  45.0676         37
  45.0861         33
  45.1047         24
  45.1233         30
  45.1419         35
  45.1604         36
  45.1790         34
  45.1976         31
  45.2162         36
  45.2347         27
  45.2533         40
  45.2719         43
  45.2905         26
  45.3091         37
  45.3276         30
  45.3462         32
  45.3648         41
  45.3834         28
  45.4019         33
  45.4205         32
  45.4391         28
  45.4577         28
  45.4762         32
  45.4948         32
  45.5134         35
  45.5320         42
  45.5505         39
  45.5691         32
  45.5877         47
  45.6063         47
  45.6248         38
  45.6434         32
  45.6620         29
  45.6806         38
  45.6991         37
  45.7177         27
  45.7363         31
  45.7549         33
  45.7734         33
  45.7920         30
  45.8106         37
  45.8292         27
  45.8477         35
  45.8663         35
  45.8849         31
  45.9035         32
  45.9220         34
  45.9406         26
  45.9592         33
  45.9778         38
  45.9963         31
  46.0149         36
  46.0335         29
  46.0521         35
  46.0707         28
  46.0892         28
  46.1078         32
  46.1264         37
  46.1450         36
  46.1635         36
  46.1821         29
  46.2007         32
  46.2193         36
  46.2378         36
  46.2564         33
  46.2750         39
  46.2936         31
  46.3121         39
  46.3307         36
  46.3493         33
  46.3679         26
  46.3864         38
  46.4050         33
  46.4236         44
  46.4422         36
  46.4607         28
  46.4793         35
  46.4979         27
  46.5165         39
  46.5350         25
  46.5536         38
  46.5722         39
  46.5908         45
  46.6093         34
  46.6279         30
  46.6465         27
  46.6651         31
  46.6836         29
  46.7022         28
  46.7208         35
  46.7394         33
  46.7579         32
  46.7765         34
  46.7951         42
  46.8137         29
  46.8323         33
  46.8508         31
  46.8694         27
  46.8880         44
  46.9066         25
  46.9251         26
  46.9437         35
  46.9623         37
  46.9809         38
  46.9994         33
  47.0180         40
  47.0366         32
  47.0552         33
  47.0737         39
  47.0923         19
  47.1109         31
  47.1295         29
  47.1480         39
  47.1666         31
  47.1852         34
  47.2038         32
  47.2223         38
  47.2409         24
  47.2595         20
  47.2781         33
  47.2966         31
  47.3152         42
  47.3338         34
  47.3524         39
  47.3709         32
  47.3895         38
  47.4081         27
  47.4267         33
  47.4452         37
  47.4638         24
  47.4824         34
  47.5010         28
  47.5195         20
  47.5381         32
  47.5567         42
  47.5753         40
  47.5939         41
  47.6124         36
  47.6310         29
  47.6496         19
  47.6682         23
  47.6867         32
  47.7053         37
  47.7239         32
  47.7425         27
  47.7610         29
  47.7796         34
  47.7982         24
  47.8168         26
  47.8353         32
  47.8539         31
  47.8725         46
  47.8911         29
  47.9096         29
  47.9282         36
  47.9468         38
  47.9654         33
  47.9839         31
  48.0025         31
  48.0211         44
  48.0397         27
  48.0582         30
  48.0768         33
  48.0954         28
  48.1140         29
  48.1325         28
  48.1511         22
  48.1697         27
  48.1883         36
  48.2068         36
  48.2254         33
  48.2440         42
  48.2626         34
  48.2811         28
  48.2997         35
  48.3183         28
  48.3369         23
  48.3555         24
  48.3740         29
  48.3926         30
  48.4112         23
  48.4298         26
  48.4483         17
  48.4669         30
  48.4855         31
  48.5041         33
  48.5226         34
  48.5412         34
  48.5598         38
  48.5784         29
  48.5969         27
  48.6155         37
  48.6341         31
  48.6527         30
  48.6712         35
  48.6898         50
  48.7084         35
  48.7270         37
  48.7455         28
  48.7641         39
  48.7827         30
  48.8013         33
  48.8198         29
  48.8384         34
  48.8570         40
  48.8756         34
  48.8941         40
  48.9127         38
  48.9313         41
  48.9499         48
  48.9684         53
  48.9870         45
  49.0056         44
  49.0242         42
  49.0427         34
  49.0613         37
  49.0799         42
  49.0985         45
  49.1171         36
  49.1356         34
  49.1542         30
  49.1728         35
  49.1914         40
  49.2099         40
  49.2285         28
  49.2471         21
  49.2657         28
  49.2842         30
  49.3028         33
  49.3214         33
  49.3400         34
  49.3585         28
  49.3771         25
  49.3957         40
  49.4143         37
  49.4328         26
  49.4514         30
  49.4700         34
  49.4886         38
  49.5071         34
  49.5257         34
  49.5443         34
  49.5629         26
  49.5814         32
  49.6000         31
  49.6186         30
  49.6372         37
  49.6557         27
  49.6743         27
  49.6929         18
  49.7115         41
  49.7300         21
  49.7486         37
  49.7672         38
  49.7858         35
  49.8043         30
  49.8229         39
  49.8415         27
  49.8601         23
  49.8786         25
  49.8972         36
  49.9158         21
  49.9344         31
  49.9530         31
  49.9715         29
  49.9901         29
  50.0087         25
  50.0273         41
  50.0458         31
  50.0644         27
  50.0830         26
  50.1016         24
  50.1201         35
  50.1387         32
  50.1573         28
  50.1759         29
  50.1944         34
  50.2130         25
  50.2316         30
  50.2502         31
  50.2687         24
  50.2873         33
  50.3059         30
  50.3245         27
  50.3430         29
  50.3616         26
  50.3802         40
  50.3988         35
  50.4173         31
  50.4359         31
  50.4545         24
  50.4731         29
  50.4916         33
  50.5102         38
  50.5288         29
  50.5474         27
  50.5659         28
  50.5845         40
  50.6031         27
  50.6217         34
  50.6402         26
  50.6588         31
  50.6774         27
  50.6960         37
  50.7146         22
  50.7331         30
  50.7517         17
  50.7703         33
  50.7889         34
  50.8074         34
  50.8260         36
  50.8446         33
  50.8632         29
  50.8817         28
  50.9003         35
  50.9189         31
  50.9375         28
  50.9560         35
  50.9746         30
  50.9932         24
  51.0118         27
  51.0303         26
  51.0489         28
  51.0675         23
  51.0861         35
  51.1046         32
  51.1232         24
  51.1418         28
  51.1604         35
  51.1789         35
  51.1975         40
  51.2161         22
  51.2347         29
  51.2532         20
  51.2718         22
  51.2904         39
  51.3090         41
  51.3275         34
  51.3461         24
  51.3647         23
  51.3833         28
  51.4018         29
  51.4204         26
  51.4390         46
  51.4576         30
  51.4762         22
  51.4947         38
  51.5133         34
  51.5319         32
  51.5505         35
  51.5690         37
  51.5876         25
  51.6062         17
  51.6248         30
  51.6433         38
  51.6619         35
  51.6805         37
  51.6991         25
  51.7176         28
  51.7362         38
  51.7548         29
  51.7734         31
  51.7919         42
  51.8105         42
  51.8291         27
  51.8477         34
  51.8662         31
  51.8848         47
  51.9034         23
  51.9220         30
  51.9405         27
  51.9591         27
  51.9777         39
  51.9963         32
  52.0148         29
  52.0334         34
  52.0520         30
  52.0706         30
  52.0891         33
  52.1077         39
  52.1263         28
  52.1449         27
  52.1634         32
  52.1820         24
  52.2006         31
  52.2192         34
  52.2378         33
  52.2563         35
  52.2749         22
  52.2935         31
  52.3121         30
  52.3306         32
  52.3492         27
  52.3678         36
  52.3864         40
  52.4049         35
  52.4235         35
  52.4421         28
  52.4607         27
  52.4792         29
  52.4978         21
  52.5164         27
  52.5350         33
  52.5535         38
  52.5721         38
  52.5907         33
  52.6093         33
  52.6278         29
  52.6464         28
  52.6650         23
  52.6836         21
  52.7021         21
  52.7207         18
  52.7393         27
  52.7579         35
  52.7764         27
  52.7950         31
  52.8136         28
  52.8322         27
  52.8507         26
  52.8693         26
  52.8879         21
  52.9065         31
  52.9250         33
  52.9436         33
  52.9622         38
  52.9808         33
  52.9994         31
  53.0179         38
  53.0365         26
  53.0551         24
  53.0737         31
  53.0922         24
  53.1108         20
  53.1294         25
  53.1480         33
  53.1665         33
  53.1851         33
  53.2037         32
  53.2223         30
  53.2408         24
  53.2594         29
  53.2780         26
  53.2966         27
  53.3151         35
  53.3337         28
  53.3523         34
  53.3709         29
  53.3894         31
  53.4080         29
  53.4266         34
  53.4452         23
  53.4637         31
  53.4823         25
  53.5009         27
  53.5195         31
  53.5380         28
  53.5566         28
  53.5752         33
  53.5938         36
  53.6123         24
  53.6309         33
  53.6495         36
  53.6681         38
  53.6866         31
  53.7052         28
  53.7238         31
  53.7424         24
  53.7610         29
  53.7795         25
  53.7981         33
  53.8167         34
  53.8353         22
  53.8538         28
  53.8724         23
  53.8910         35
  53.9096         38
  53.9281         19
  53.9467         21
  53.9653         44
  53.9839         43
  54.0024         35
  54.0210         45
  54.0396         25
  54.0582         26
  54.0767         28
  54.0953         34
  54.1139         40
  54.1325         34
  54.1510         42
  54.1696         44
  54.1882         33
  54.2068         32
  54.2253         34
  54.2439         19
  54.2625         25
  54.2811         33
  54.2996         25
  54.3182         32
  54.3368         36
  54.3554         20
  54.3739         23
  54.3925         16
  54.4111         27
  54.4297         31
  54.4482         34
  54.4668         22
  54.4854         30
  54.5040         36
  54.5225         29
  54.5411         19
  54.5597         28
  54.5783         21
  54.5969         23
  54.6154         24
  54.6340         27
  54.6526         22
  54.6712         30
  54.6897         30
  54.7083         22
  54.7269         37
  54.7455         27
  54.7640         29
  54.7826         32
  54.8012         29
  54.8198         26
  54.8383         25
  54.8569         26
  54.8755         33
  54.8941         34
  54.9126         39
  54.9312         30
  54.9498         17
  54.9684         38
  54.9869         30
  55.0055         36
  55.0241         21
  55.0427         25
  55.0612         24
  55.0798         27
  55.0984         32
  55.1170         21
  55.1355         20
  55.1541         31
  55.1727         26
  55.1913         26
  55.2098         27
  55.2284         29
  55.2470         28
  55.2656         23
  55.2841         21
  55.3027         38
  55.3213         26
  55.3399         25
  55.3585         20
  55.3770         26
  55.3956         27
  55.4142         23
  55.4328         28
  55.4513         33
  55.4699         24
  55.4885         25
  55.5071         30
  55.5256         24
  55.5442         27
  55.5628         20
  55.5814         18
  55.5999         37
  55.6185         25
  55.6371         29
  55.6557         26
  55.6742         28
  55.6928         22
  55.7114         26
  55.7300         28
  55.7485         20
  55.7671         27
  55.7857         38
  55.8043         26
  55.8228         27
  55.8414         26
  55.8600         35
  55.8786         28
  55.8971         21
  55.9157         16
  55.9343         29
  55.9529         25
  55.9714         29
  55.9900         28
  56.0086         26
  56.0272         29
  56.0457         40
  56.0643         28
  56.0829         49
  56.1015         21
  56.1201         31
  56.1386         34
  56.1572         40
  56.1758         28
  56.1944         31
  56.2129         36
  56.2315         34
  56.2501         38
  56.2687         32
  56.2872         33
  56.3058         17
  56.3244         32
  56.3430         23
  56.3615         22
  56.3801         33
  56.3987         48
  56.4173         20
  56.4358         31
  56.4544         33
  56.4730         25
  56.4916         27
  56.5101         35
  56.5287         29
  56.5473         27
  56.5659         34
  56.5844         33
  56.6030         26
  56.6216         23
  56.6402         29
  56.6587         17
  56.6773         24
  56.6959         33
  56.7145         20
  56.7330         33
  56.7516         23
  56.7702         33
  56.7888         34
  56.8073         13
  56.8259         25
  56.8445         33
  56.8631         23
  56.8817         38
  56.9002         20
  56.9188         35
  56.9374         21
  56.9560         19
  56.9745         26
  56.9931         33
  57.0117         31
  57.0303         38
  57.0488         23
  57.0674         33
  57.0860         25
  57.1046         33
  57.1231         24
  57.1417         26
  57.1603         26
  57.1789         35
  57.1974         37
  57.2160         28
  57.2346         16
  57.2532         28
  57.2717         24
  57.2903         23
  57.3089         26
  57.3275         26
  57.3460         18
  57.3646         32
  57.3832         26
  57.4018         22
  57.4203         40
  57.4389         24
  57.4575         17
  57.4761         27
  57.4946         30
  57.5132         28
  57.5318         43
  57.5504         29
  57.5689         23
  57.5875         24
  57.6061         19
  57.6247         27
  57.6433         32
  57.6618         28
  57.6804         35
  57.6990         28
  57.7176         36
  57.7361         31
  57.7547         36
  57.7733         37
  57.7919         27
  57.8104         33
  57.8290         23
  57.8476         20
  57.8662         26
  57.8847         41
  57.9033         40
  57.9219         33
  57.9405         23
  57.9590         25
  57.9776         33
  57.9962         29
  58.0148         22
  58.0333         21
  58.0519         23
  58.0705         24
  58.0891         30
  58.1076         24
  58.1262         24
  58.1448         24
  58.1634         32
  58.1819         31
  58.2005         24
  58.2191         28
  58.2377         23
  58.2562         26
  58.2748         25
  58.2934         34
  58.3120         32
  58.3305         35
  58.3491         23
  58.3677         30
  58.3863         22
  58.4049         33
  58.4234         30
  58.4420         38
  58.4606         24
  58.4792         25
  58.4977         22
  58.5163         36
  58.5349         29
  58.5535         30
  58.5720         32
  58.5906         34
  58.6092         36
  58.6278         30
  58.6463         26
  58.6649         26
  58.6835         19
  58.7021         38
  58.7206         24
  58.7392         36
  58.7578         22
  58.7764         28
  58.7949         28
  58.8135         18
  58.8321         30
  58.8507         28
  58.8692         31
  58.8878         36
  58.9064         20
  58.9250         27
  58.9435         17
  58.9621         28
  58.9807         33
  58.9993         30
  59.0178         31
  59.0364         31
  59.0550         39
  59.0736         32
  59.0921         28
  59.1107         27
  59.1293         35
  59.1479         22
  59.1664         29
  59.1850         28
  59.2036         24
  59.2222         19
  59.2408         31
  59.2593         28
  59.2779         22
  59.2965         23
  59.3151         31
  59.3336         23
  59.3522         27
  59.3708         25
  59.3894         30
  59.4079         30
  59.4265         29
  59.4451         30
  59.4637         21
  59.4822         21
  59.5008         22
  59.5194         37
  59.5380         28
  59.5565         31
  59.5751         39
  59.5937         39
  59.6123         33
  59.6308         26
  59.6494         22
  59.6680         29
  59.6866         28
  59.7051         23
  59.7237         24
  59.7423         29
  59.7609         25
  59.7794         26
  59.7980         26
  59.8166         18
  59.8352         34
  59.8537         36
  59.8723         27
  59.8909         21
  59.9095         27
  59.9280         20
  59.9466         36
  59.9652         36
  59.9838         10
  60.0024         24
