; (content of file Y:\Sam\Apurva-07-20-2022\puck4\ML_20220718_5_SJD_0_LaB6-1min.raw)
_FILEVERSION = 3
_SAMPLE = ML_20220718_5_SJD_0_LaB6-1mi
_+SAMPLE = 
_SITE = USA
_USER = Administrator
_GONIOMETER_CODE = 20
; Goniometer : D8 theta/2theta, stage : Unknown
_ATTACHMENTS_CODE = 0
_GONIOMETER_RADIUS = 200.5
_FIXED_DIVSLIT = 0.6
_FIXED_SAMPLESLIT = 0
_SOLLER_SLITS = 2
_FIXED_DETSLIT = 9.55
_MONOCHROMATOR = 0
; Incident beam monochromator : None
_SOLLER_SLITS_2 = N
_THIN_FILM = N
_BETA_FILTER = Y
_FIXED_ANTISLIT = 5.89
_ANALYZER_CODE = 0
; Received beam analyzer : None
_DATEMEASURED = "21-Jul-2022 03:08:03"
_WL_UNIT = A
_WL1 = 1.5406
_WL2 = 1.54439
_WL3 = 1.39222
_WLRATIO = 0.5
_ANODE = Cu
_V4_INF_CREATOR = XRDWizard
_V4_INF_CREATOR_VERSION = V2.9.0.22
_V4_INF_WIZARD_VERSION = V2.9.0.22
_V4_INF_WIZARD_ADDINS = V2.9.0.22
_V4_INF_WIZARD_DOCTYPE = XRD
_V4_INF_OSUSER = McQueenLab
_V4_INF_USER = Administrator
_V4_INF_SITE = USA
_V4_INF_SAMPLEID = ML_20220718_5_SJD_0_LaB6-1mi

; Data for range 1
_DRIVE = COUPLED
_STEPTIME = 4.23
_STEPSIZE = 0.0185756
_STEPMODE = C
_START = 5
_THETA = 2.5
_2THETA = 5
_KHI = 0
_PHI = 0
_X = 0
_Y = 0
_Z = 0
_DETECTOR = 5
; Detector type : Unknown
_DETECTORSLIT = unkn
_AUX1 = 0
_AUX2 = 0
_AUX3 = 0
_TIMESTARTED = 15
_TEMP_RATE = -1
_TEMP_DELAY = -1
_KV = 40
_MA = 40
_RANGE_WL = 1.5406
_3DPLANE = 0
_V4_ADDITIONALDETECTOR = 257
_V4_PSD2THETA = 3.3736
_V4_PSDCHANNEL1 = 0
_V4_PSDAPERTURE = 12.68
_V4_PSDTYPE = 5
_V4_PSDFIXED = 0
_V4_COUNTERS_MASK = 4096
_V4_DRIVES_MASK = 0
_V4_ENCODERS_MASK = 0
_2THETACOUNTS = 1
; 2THETA  PSD
   5.0000         88
   5.0186        104
   5.0372        104
   5.0557         89
   5.0743         89
   5.0929         84
   5.1115         84
   5.1300         83
   5.1486         88
   5.1672         83
   5.1858         99
   5.2043         81
   5.2229        101
   5.2415        102
   5.2601         87
   5.2786         77
   5.2972         75
   5.3158         95
   5.3344         76
   5.3529        109
   5.3715         77
   5.3901         75
   5.4087         74
   5.4272         93
   5.4458         97
   5.4644         93
   5.4830         73
   5.5015         80
   5.5201         71
   5.5387         82
   5.5573         79
   5.5758         70
   5.5944         83
   5.6130         77
   5.6316         69
   5.6501         68
   5.6687         88
   5.6873         75
   5.7059         80
   5.7244         82
   5.7430         80
   5.7616         97
   5.7802         57
   5.7988         74
   5.8173         75
   5.8359         64
   5.8545         77
   5.8731         72
   5.8916         75
   5.9102         69
   5.9288         75
   5.9474         71
   5.9659         60
   5.9845         72
   6.0031         75
   6.0217         63
   6.0402         69
   6.0588         83
   6.0774         68
   6.0960         63
   6.1145         60
   6.1331         46
   6.1517         70
   6.1703         79
   6.1888         64
   6.2074         66
   6.2260         67
   6.2446         62
   6.2631         75
   6.2817         63
   6.3003         68
   6.3189         75
   6.3374         50
   6.3560         75
   6.3746         73
   6.3932         75
   6.4117         75
   6.4303         79
   6.4489         69
   6.4675         60
   6.4860         62
   6.5046         85
   6.5232         50
   6.5418         65
   6.5604         62
   6.5789         62
   6.5975         68
   6.6161         57
   6.6347         61
   6.6532         49
   6.6718         55
   6.6904         54
   6.7090         62
   6.7275         79
   6.7461         69
   6.7647         69
   6.7833         65
   6.8018         58
   6.8204         77
   6.8390         57
   6.8576         57
   6.8761         57
   6.8947         67
   6.9133         62
   6.9319         59
   6.9504         71
   6.9690         69
   6.9876         85
   7.0062         56
   7.0247         72
   7.0433         70
   7.0619         59
   7.0805         56
   7.0990         43
   7.1176         58
   7.1362         58
   7.1548         60
   7.1733         49
   7.1919         53
   7.2105         43
   7.2291         48
   7.2476         57
   7.2662         52
   7.2848         58
   7.3034         59
   7.3220         67
   7.3405         56
   7.3591         45
   7.3777         57
   7.3963         53
   7.4148         62
   7.4334         64
   7.4520         68
   7.4706         57
   7.4891         69
   7.5077         52
   7.5263         69
   7.5449         52
   7.5634         56
   7.5820         64
   7.6006         69
   7.6192         61
   7.6377         60
   7.6563         66
   7.6749         59
   7.6935         70
   7.7120         65
   7.7306         65
   7.7492         53
   7.7678         66
   7.7863         65
   7.8049         58
   7.8235         62
   7.8421         76
   7.8606         67
   7.8792         59
   7.8978         39
   7.9164         60
   7.9349         67
   7.9535         69
   7.9721         64
   7.9907         67
   8.0092         66
   8.0278         73
   8.0464         79
   8.0650         77
   8.0835         73
   8.1021         80
   8.1207         49
   8.1393         70
   8.1579         69
   8.1764         63
   8.1950         74
   8.2136         60
   8.2322         67
   8.2507         61
   8.2693         67
   8.2879         68
   8.3065         64
   8.3250         67
   8.3436         70
   8.3622         82
   8.3808         82
   8.3993         64
   8.4179         73
   8.4365         57
   8.4551         69
   8.4736         84
   8.4922         72
   8.5108         66
   8.5294         67
   8.5479         83
   8.5665         66
   8.5851         65
   8.6037         76
   8.6222         81
   8.6408         64
   8.6594         59
   8.6780         64
   8.6965         81
   8.7151         65
   8.7337         69
   8.7523         71
   8.7708         87
   8.7894         77
   8.8080         71
   8.8266         77
   8.8451         79
   8.8637         66
   8.8823         80
   8.9009         74
   8.9195         81
   8.9380         68
   8.9566         72
   8.9752         74
   8.9938         75
   9.0123         60
   9.0309         75
   9.0495         88
   9.0681         52
   9.0866         81
   9.1052         75
   9.1238         89
   9.1424         79
   9.1609         86
   9.1795         73
   9.1981         79
   9.2167         70
   9.2352         85
   9.2538         74
   9.2724         83
   9.2910         65
   9.3095         72
   9.3281         86
   9.3467         79
   9.3653         75
   9.3838         75
   9.4024         76
   9.4210         64
   9.4396         77
   9.4581         64
   9.4767         84
   9.4953         73
   9.5139         76
   9.5324         78
   9.5510         81
   9.5696         70
   9.5882         82
   9.6067         85
   9.6253         93
   9.6439         97
   9.6625         70
   9.6811         83
   9.6996         75
   9.7182         79
   9.7368         96
   9.7554         90
   9.7739         75
   9.7925         70
   9.8111         88
   9.8297         85
   9.8482         95
   9.8668         90
   9.8854         84
   9.9040        111
   9.9225        110
   9.9411         69
   9.9597         77
   9.9783         69
   9.9968         88
  10.0154         76
  10.0340         81
  10.0526         86
  10.0711         88
  10.0897         81
  10.1083         92
  10.1269         87
  10.1454         95
  10.1640         81
  10.1826         73
  10.2012         83
  10.2197         98
  10.2383         85
  10.2569         99
  10.2755         86
  10.2940         80
  10.3126         87
  10.3312         83
  10.3498         70
  10.3683        108
  10.3869        100
  10.4055         91
  10.4241         90
  10.4427         80
  10.4612         85
  10.4798         82
  10.4984         79
  10.5170         92
  10.5355         60
  10.5541         74
  10.5727         91
  10.5913         74
  10.6098         85
  10.6284        105
  10.6470         99
  10.6656         73
  10.6841         96
  10.7027         78
  10.7213         98
  10.7399         78
  10.7584         89
  10.7770         78
  10.7956         78
  10.8142         99
  10.8327         91
  10.8513         88
  10.8699         73
  10.8885         84
  10.9070         78
  10.9256         87
  10.9442         90
  10.9628         87
  10.9813         80
  10.9999         92
  11.0185         85
  11.0371         64
  11.0556         94
  11.0742         79
  11.0928         82
  11.1114         98
  11.1299         81
  11.1485         78
  11.1671         74
  11.1857         66
  11.2043         82
  11.2228         85
  11.2414         89
  11.2600         85
  11.2786         73
  11.2971         86
  11.3157         83
  11.3343         77
  11.3529         70
  11.3714         84
  11.3900         74
  11.4086         84
  11.4272         73
  11.4457         96
  11.4643         77
  11.4829         76
  11.5015         85
  11.5200         63
  11.5386         92
  11.5572         77
  11.5758         88
  11.5943         77
  11.6129         93
  11.6315         88
  11.6501         87
  11.6686         92
  11.6872         76
  11.7058         92
  11.7244         79
  11.7429         81
  11.7615         77
  11.7801         89
  11.7987         88
  11.8172         74
  11.8358         74
  11.8544         81
  11.8730         96
  11.8915         91
  11.9101         82
  11.9287         82
  11.9473         85
  11.9659         94
  11.9844         76
  12.0030         77
  12.0216         87
  12.0402         79
  12.0587         83
  12.0773         74
  12.0959         68
  12.1145         89
  12.1330         76
  12.1516         79
  12.1702         72
  12.1888         63
  12.2073         79
  12.2259         65
  12.2445         73
  12.2631         81
  12.2816         70
  12.3002         94
  12.3188         78
  12.3374         82
  12.3559         69
  12.3745         76
  12.3931         79
  12.4117         74
  12.4302         72
  12.4488         73
  12.4674         74
  12.4860         76
  12.5045         72
  12.5231         58
  12.5417         62
  12.5603         91
  12.5788         77
  12.5974         59
  12.6160         80
  12.6346         62
  12.6531         79
  12.6717         80
  12.6903         81
  12.7089         75
  12.7274         62
  12.7460         90
  12.7646         66
  12.7832         76
  12.8018         71
  12.8203         79
  12.8389         78
  12.8575         89
  12.8761         61
  12.8946         82
  12.9132         75
  12.9318         81
  12.9504         75
  12.9689         80
  12.9875         72
  13.0061         83
  13.0247         66
  13.0432         73
  13.0618         74
  13.0804         70
  13.0990         67
  13.1175         83
  13.1361         65
  13.1547         88
  13.1733         74
  13.1918         79
  13.2104         72
  13.2290         58
  13.2476         57
  13.2661         76
  13.2847         78
  13.3033         58
  13.3219         65
  13.3404         80
  13.3590         64
  13.3776         69
  13.3962         68
  13.4147         80
  13.4333         73
  13.4519         69
  13.4705         56
  13.4890         64
  13.5076         79
  13.5262         59
  13.5448         65
  13.5634         74
  13.5819         73
  13.6005         58
  13.6191         60
  13.6377         78
  13.6562         73
  13.6748         79
  13.6934         70
  13.7120         70
  13.7305         72
  13.7491         76
  13.7677         69
  13.7863         81
  13.8048         65
  13.8234         79
  13.8420         65
  13.8606         56
  13.8791         72
  13.8977         81
  13.9163         57
  13.9349         63
  13.9534         59
  13.9720         76
  13.9906         60
  14.0092         75
  14.0277         66
  14.0463         77
  14.0649         71
  14.0835         58
  14.1020         69
  14.1206         66
  14.1392         60
  14.1578         70
  14.1763         63
  14.1949         71
  14.2135         59
  14.2321         66
  14.2506         58
  14.2692         75
  14.2878         61
  14.3064         66
  14.3250         52
  14.3435         65
  14.3621         52
  14.3807         66
  14.3993         65
  14.4178         71
  14.4364         77
  14.4550         75
  14.4736         63
  14.4921         63
  14.5107         53
  14.5293         59
  14.5479         47
  14.5664         70
  14.5850         69
  14.6036         56
  14.6222         54
  14.6407         62
  14.6593         56
  14.6779         60
  14.6965         70
  14.7150         61
  14.7336         65
  14.7522         62
  14.7708         61
  14.7893         51
  14.8079         52
  14.8265         51
  14.8451         68
  14.8636         59
  14.8822         62
  14.9008         50
  14.9194         64
  14.9379         72
  14.9565         86
  14.9751         63
  14.9937         55
  15.0122         74
  15.0308         59
  15.0494         47
  15.0680         56
  15.0866         60
  15.1051         62
  15.1237         60
  15.1423         67
  15.1609         55
  15.1794         69
  15.1980         51
  15.2166         65
  15.2352         43
  15.2537         68
  15.2723         61
  15.2909         66
  15.3095         60
  15.3280         62
  15.3466         48
  15.3652         49
  15.3838         53
  15.4023         65
  15.4209         64
  15.4395         58
  15.4581         59
  15.4766         51
  15.4952         64
  15.5138         50
  15.5324         66
  15.5509         66
  15.5695         52
  15.5881         51
  15.6067         72
  15.6252         59
  15.6438         65
  15.6624         68
  15.6810         79
  15.6995         58
  15.7181         46
  15.7367         70
  15.7553         58
  15.7738         62
  15.7924         56
  15.8110         47
  15.8296         54
  15.8482         58
  15.8667         70
  15.8853         54
  15.9039         44
  15.9225         56
  15.9410         61
  15.9596         65
  15.9782         66
  15.9968         58
  16.0153         51
  16.0339         61
  16.0525         61
  16.0711         61
  16.0896         64
  16.1082         66
  16.1268         49
  16.1454         68
  16.1639         69
  16.1825         67
  16.2011         72
  16.2197         55
  16.2382         63
  16.2568         79
  16.2754         52
  16.2940         68
  16.3125         71
  16.3311         62
  16.3497         54
  16.3683         73
  16.3868         65
  16.4054         61
  16.4240         49
  16.4426         63
  16.4611         61
  16.4797         73
  16.4983         60
  16.5169         58
  16.5354         41
  16.5540         46
  16.5726         56
  16.5912         64
  16.6097         50
  16.6283         49
  16.6469         54
  16.6655         58
  16.6841         49
  16.7026         59
  16.7212         53
  16.7398         56
  16.7584         58
  16.7769         59
  16.7955         69
  16.8141         63
  16.8327         61
  16.8512         58
  16.8698         53
  16.8884         67
  16.9070         63
  16.9255         61
  16.9441         48
  16.9627         60
  16.9813         56
  16.9998         60
  17.0184         62
  17.0370         46
  17.0556         51
  17.0741         70
  17.0927         73
  17.1113         69
  17.1299         52
  17.1484         72
  17.1670         67
  17.1856         58
  17.2042         60
  17.2227         55
  17.2413         73
  17.2599         66
  17.2785         60
  17.2970         56
  17.3156         54
  17.3342         55
  17.3528         54
  17.3713         61
  17.3899         64
  17.4085         53
  17.4271         58
  17.4457         54
  17.4642         56
  17.4828         66
  17.5014         68
  17.5200         65
  17.5385         52
  17.5571         55
  17.5757         55
  17.5943         55
  17.6128         57
  17.6314         60
  17.6500         64
  17.6686         53
  17.6871         45
  17.7057         54
  17.7243         53
  17.7429         60
  17.7614         71
  17.7800         43
  17.7986         44
  17.8172         59
  17.8357         48
  17.8543         59
  17.8729         57
  17.8915         71
  17.9100         71
  17.9286         52
  17.9472         53
  17.9658         62
  17.9843         57
  18.0029         57
  18.0215         52
  18.0401         52
  18.0586         51
  18.0772         62
  18.0958         58
  18.1144         64
  18.1329         48
  18.1515         61
  18.1701         61
  18.1887         57
  18.2073         60
  18.2258         59
  18.2444         51
  18.2630         61
  18.2816         66
  18.3001         60
  18.3187         49
  18.3373         59
  18.3559         63
  18.3744         52
  18.3930         48
  18.4116         56
  18.4302         69
  18.4487         68
  18.4673         61
  18.4859         72
  18.5045         58
  18.5230         72
  18.5416         63
  18.5602         57
  18.5788         69
  18.5973         57
  18.6159         73
  18.6345         48
  18.6531         60
  18.6716         55
  18.6902         61
  18.7088         73
  18.7274         57
  18.7459         55
  18.7645         68
  18.7831         67
  18.8017         69
  18.8202         48
  18.8388         80
  18.8574         53
  18.8760         52
  18.8945         70
  18.9131         77
  18.9317         70
  18.9503         62
  18.9689         68
  18.9874         61
  19.0060         60
  19.0246         64
  19.0432         52
  19.0617         71
  19.0803         57
  19.0989         63
  19.1175         65
  19.1360         67
  19.1546         62
  19.1732         67
  19.1918         68
  19.2103         59
  19.2289         76
  19.2475         70
  19.2661         60
  19.2846         52
  19.3032         66
  19.3218         67
  19.3404         59
  19.3589         54
  19.3775         67
  19.3961         77
  19.4147         56
  19.4332         60
  19.4518         49
  19.4704         72
  19.4890         73
  19.5075         77
  19.5261         58
  19.5447         57
  19.5633         61
  19.5818         80
  19.6004         66
  19.6190         61
  19.6376         67
  19.6561         73
  19.6747         71
  19.6933         75
  19.7119         71
  19.7305         57
  19.7490         58
  19.7676         68
  19.7862         70
  19.8048         58
  19.8233         61
  19.8419         60
  19.8605         56
  19.8791         59
  19.8976         55
  19.9162         89
  19.9348         73
  19.9534         59
  19.9719         55
  19.9905         64
  20.0091         53
  20.0277         73
  20.0462         55
  20.0648         57
  20.0834         79
  20.1020         75
  20.1205         63
  20.1391         70
  20.1577         68
  20.1763         53
  20.1948         73
  20.2134         57
  20.2320         52
  20.2506         68
  20.2691         72
  20.2877         62
  20.3063         56
  20.3249         59
  20.3434         63
  20.3620         59
  20.3806         62
  20.3992         62
  20.4177         62
  20.4363         62
  20.4549         78
  20.4735         79
  20.4921         64
  20.5106         55
  20.5292         66
  20.5478         58
  20.5664         72
  20.5849         77
  20.6035         64
  20.6221         67
  20.6407         77
  20.6592         53
  20.6778         63
  20.6964         60
  20.7150         67
  20.7335         56
  20.7521         71
  20.7707         67
  20.7893         76
  20.8078         57
  20.8264         69
  20.8450         76
  20.8636         82
  20.8821         64
  20.9007         76
  20.9193         89
  20.9379         65
  20.9564         86
  20.9750         58
  20.9936         62
  21.0122         68
  21.0307         65
  21.0493         73
  21.0679         74
  21.0865         77
  21.1050         76
  21.1236         76
  21.1422         82
  21.1608         92
  21.1793        106
  21.1979        129
  21.2165        136
  21.2351        121
  21.2537        111
  21.2722         97
  21.2908        102
  21.3094        127
  21.3280        171
  21.3465        198
  21.3651        136
  21.3837        124
  21.4023        122
  21.4208        103
  21.4394         87
  21.4580         83
  21.4766         72
  21.4951         73
  21.5137         72
  21.5323         79
  21.5509         79
  21.5694         60
  21.5880         85
  21.6066         79
  21.6252         68
  21.6437         61
  21.6623         68
  21.6809         65
  21.6995         73
  21.7180         81
  21.7366         61
  21.7552         68
  21.7738         76
  21.7923         82
  21.8109         67
  21.8295         78
  21.8481         71
  21.8666         77
  21.8852         70
  21.9038         65
  21.9224         71
  21.9409         76
  21.9595         69
  21.9781         71
  21.9967         76
  22.0152         64
  22.0338         61
  22.0524         70
  22.0710         72
  22.0896         70
  22.1081         83
  22.1267         67
  22.1453         80
  22.1639         63
  22.1824         80
  22.2010         55
  22.2196         66
  22.2382         60
  22.2567         64
  22.2753         61
  22.2939         75
  22.3125         84
  22.3310         76
  22.3496         79
  22.3682         74
  22.3868         76
  22.4053         90
  22.4239         64
  22.4425         69
  22.4611         72
  22.4796         66
  22.4982         66
  22.5168         56
  22.5354         62
  22.5539         77
  22.5725         79
  22.5911         64
  22.6097         62
  22.6282         65
  22.6468         60
  22.6654         65
  22.6840         66
  22.7025         81
  22.7211         70
  22.7397         67
  22.7583         63
  22.7768         87
  22.7954         71
  22.8140         75
  22.8326         69
  22.8512         85
  22.8697         74
  22.8883         84
  22.9069         84
  22.9255         68
  22.9440         78
  22.9626         69
  22.9812         57
  22.9998         78
  23.0183         82
  23.0369         65
  23.0555         77
  23.0741         80
  23.0926         70
  23.1112         80
  23.1298         80
  23.1484         77
  23.1669         73
  23.1855         76
  23.2041         79
  23.2227         80
  23.2412         73
  23.2598         63
  23.2784         80
  23.2970         80
  23.3155         79
  23.3341         70
  23.3527         72
  23.3713         88
  23.3898         73
  23.4084         70
  23.4270         71
  23.4456         73
  23.4641         72
  23.4827         78
  23.5013         88
  23.5199         84
  23.5384         90
  23.5570         57
  23.5756         74
  23.5942         68
  23.6128         63
  23.6313         86
  23.6499         64
  23.6685         95
  23.6871         83
  23.7056         70
  23.7242         78
  23.7428         72
  23.7614         72
  23.7799         73
  23.7985         79
  23.8171         62
  23.8357         89
  23.8542         61
  23.8728         76
  23.8914         69
  23.9100         78
  23.9285         66
  23.9471         68
  23.9657         78
  23.9843         69
  24.0028         81
  24.0214         80
  24.0400         67
  24.0586         79
  24.0771         53
  24.0957         61
  24.1143         82
  24.1329         77
  24.1514         86
  24.1700         69
  24.1886         61
  24.2072         96
  24.2257         74
  24.2443         75
  24.2629         84
  24.2815         87
  24.3000         70
  24.3186         72
  24.3372         88
  24.3558         83
  24.3744         69
  24.3929         72
  24.4115         68
  24.4301         91
  24.4487         79
  24.4672         85
  24.4858         84
  24.5044         79
  24.5230         72
  24.5415         92
  24.5601         65
  24.5787         61
  24.5973         73
  24.6158         65
  24.6344         70
  24.6530         64
  24.6716         75
  24.6901         71
  24.7087         68
  24.7273         80
  24.7459         64
  24.7644         82
  24.7830         62
  24.8016         69
  24.8202         66
  24.8387         66
  24.8573         59
  24.8759         78
  24.8945         78
  24.9130         73
  24.9316         68
  24.9502         88
  24.9688         64
  24.9873         75
  25.0059         65
  25.0245         61
  25.0431         67
  25.0616         68
  25.0802         48
  25.0988         56
  25.1174         84
  25.1360         73
  25.1545         97
  25.1731         72
  25.1917         62
  25.2103         83
  25.2288         70
  25.2474         82
  25.2660         64
  25.2846         72
  25.3031         56
  25.3217         74
  25.3403         72
  25.3589         65
  25.3774         76
  25.3960         73
  25.4146         60
  25.4332         72
  25.4517         76
  25.4703         67
  25.4889         67
  25.5075         70
  25.5260         77
  25.5446         79
  25.5632         64
  25.5818         77
  25.6003         68
  25.6189         68
  25.6375         71
  25.6561         72
  25.6746         74
  25.6932         82
  25.7118         69
  25.7304         59
  25.7489         71
  25.7675         81
  25.7861         60
  25.8047         80
  25.8232         76
  25.8418         69
  25.8604         75
  25.8790         68
  25.8976         82
  25.9161         78
  25.9347         78
  25.9533         77
  25.9719         70
  25.9904         46
  26.0090         78
  26.0276         55
  26.0462         70
  26.0647         64
  26.0833         62
  26.1019         69
  26.1205         84
  26.1390         68
  26.1576         70
  26.1762         80
  26.1948         59
  26.2133         75
  26.2319         86
  26.2505         65
  26.2691         62
  26.2876         66
  26.3062         59
  26.3248         66
  26.3434         71
  26.3619         71
  26.3805         61
  26.3991         49
  26.4177         81
  26.4362         50
  26.4548         71
  26.4734         66
  26.4920         63
  26.5105         67
  26.5291         70
  26.5477         69
  26.5663         77
  26.5848         57
  26.6034         55
  26.6220         58
  26.6406         71
  26.6591         80
  26.6777         66
  26.6963         82
  26.7149         64
  26.7335         63
  26.7520         68
  26.7706         70
  26.7892         73
  26.8078         59
  26.8263         77
  26.8449         85
  26.8635         66
  26.8821         68
  26.9006         57
  26.9192         79
  26.9378         68
  26.9564         65
  26.9749         64
  26.9935         81
  27.0121         74
  27.0307         71
  27.0492         70
  27.0678         58
  27.0864         69
  27.1050         77
  27.1235         60
  27.1421         79
  27.1607         74
  27.1793         94
  27.1978         87
  27.2164         95
  27.2350         80
  27.2536        102
  27.2721         78
  27.2907         75
  27.3093         62
  27.3279         62
  27.3464         58
  27.3650         66
  27.3836         72
  27.4022         60
  27.4207         70
  27.4393         59
  27.4579         72
  27.4765         72
  27.4951         67
  27.5136         61
  27.5322         67
  27.5508         61
  27.5694         75
  27.5879         51
  27.6065         71
  27.6251         74
  27.6437         76
  27.6622         62
  27.6808         63
  27.6994         49
  27.7180         63
  27.7365         54
  27.7551         78
  27.7737         63
  27.7923         59
  27.8108         65
  27.8294         73
  27.8480         60
  27.8666         71
  27.8851         64
  27.9037         63
  27.9223         62
  27.9409         76
  27.9594         76
  27.9780         57
  27.9966         55
  28.0152         74
  28.0337         64
  28.0523         56
  28.0709         56
  28.0895         67
  28.1080         58
  28.1266         66
  28.1452         56
  28.1638         68
  28.1823         63
  28.2009         67
  28.2195         54
  28.2381         55
  28.2567         64
  28.2752         72
  28.2938         72
  28.3124         54
  28.3310         72
  28.3495         58
  28.3681         42
  28.3867         61
  28.4053         67
  28.4238         42
  28.4424         88
  28.4610         66
  28.4796         65
  28.4981         36
  28.5167         64
  28.5353         57
  28.5539         53
  28.5724         49
  28.5910         62
  28.6096         51
  28.6282         63
  28.6467         48
  28.6653         42
  28.6839         61
  28.7025         54
  28.7210         62
  28.7396         51
  28.7582         59
  28.7768         52
  28.7953         60
  28.8139         58
  28.8325         66
  28.8511         49
  28.8696         43
  28.8882         65
  28.9068         53
  28.9254         52
  28.9439         64
  28.9625         54
  28.9811         66
  28.9997         52
  29.0183         58
  29.0368         59
  29.0554         54
  29.0740         70
  29.0926         59
  29.1111         51
  29.1297         50
  29.1483         61
  29.1669         56
  29.1854         51
  29.2040         57
  29.2226         55
  29.2412         72
  29.2597         48
  29.2783         58
  29.2969         51
  29.3155         62
  29.3340         57
  29.3526         61
  29.3712         48
  29.3898         60
  29.4083         45
  29.4269         56
  29.4455         55
  29.4641         50
  29.4826         59
  29.5012         57
  29.5198         42
  29.5384         61
  29.5569         47
  29.5755         69
  29.5941         67
  29.6127         69
  29.6312         56
  29.6498         53
  29.6684         59
  29.6870         64
  29.7055         51
  29.7241         66
  29.7427         43
  29.7613         59
  29.7799         54
  29.7984         58
  29.8170         64
  29.8356         61
  29.8542         48
  29.8727         57
  29.8913         54
  29.9099         62
  29.9285         48
  29.9470         55
  29.9656         62
  29.9842         52
  30.0028         58
  30.0213         61
  30.0399         61
  30.0585         57
  30.0771         55
  30.0956         49
  30.1142         46
  30.1328         60
  30.1514         70
  30.1699         62
  30.1885         51
  30.2071         51
  30.2257         60
  30.2442         65
  30.2628         60
  30.2814         73
  30.3000         68
  30.3185         76
  30.3371         88
  30.3557        132
  30.3743        123
  30.3928         95
  30.4114         70
  30.4300         86
  30.4486         77
  30.4671         69
  30.4857         70
  30.5043         61
  30.5229         73
  30.5415         61
  30.5600         53
  30.5786         57
  30.5972         54
  30.6158         60
  30.6343         61
  30.6529         46
  30.6715         56
  30.6901         52
  30.7086         65
  30.7272         49
  30.7458         56
  30.7644         50
  30.7829         50
  30.8015         53
  30.8201         64
  30.8387         47
  30.8572         53
  30.8758         49
  30.8944         47
  30.9130         50
  30.9315         49
  30.9501         63
  30.9687         50
  30.9873         54
  31.0058         56
  31.0244         52
  31.0430         54
  31.0616         60
  31.0801         49
  31.0987         55
  31.1173         49
  31.1359         56
  31.1544         63
  31.1730         53
  31.1916         39
  31.2102         56
  31.2287         56
  31.2473         52
  31.2659         60
  31.2845         59
  31.3030         48
  31.3216         60
  31.3402         50
  31.3588         60
  31.3774         37
  31.3959         50
  31.4145         54
  31.4331         55
  31.4517         48
  31.4702         51
  31.4888         48
  31.5074         43
  31.5260         58
  31.5445         45
  31.5631         50
  31.5817         53
  31.6003         49
  31.6188         49
  31.6374         49
  31.6560         59
  31.6746         51
  31.6931         48
  31.7117         47
  31.7303         58
  31.7489         55
  31.7674         41
  31.7860         68
  31.8046         45
  31.8232         54
  31.8417         49
  31.8603         50
  31.8789         54
  31.8975         56
  31.9160         40
  31.9346         52
  31.9532         43
  31.9718         41
  31.9903         48
  32.0089         54
  32.0275         51
  32.0461         40
  32.0646         56
  32.0832         52
  32.1018         51
  32.1204         45
  32.1390         43
  32.1575         51
  32.1761         50
  32.1947         52
  32.2133         53
  32.2318         53
  32.2504         52
  32.2690         42
  32.2876         41
  32.3061         44
  32.3247         45
  32.3433         41
  32.3619         54
  32.3804         63
  32.3990         47
  32.4176         56
  32.4362         53
  32.4547         50
  32.4733         66
  32.4919         63
  32.5105         61
  32.5290         66
  32.5476         48
  32.5662         52
  32.5848         46
  32.6033         45
  32.6219         55
  32.6405         46
  32.6591         45
  32.6776         54
  32.6962         54
  32.7148         49
  32.7334         43
  32.7519         39
  32.7705         48
  32.7891         49
  32.8077         46
  32.8262         38
  32.8448         38
  32.8634         49
  32.8820         60
  32.9006         34
  32.9191         45
  32.9377         37
  32.9563         50
  32.9749         47
  32.9934         47
  33.0120         52
  33.0306         42
  33.0492         53
  33.0677         56
  33.0863         45
  33.1049         44
  33.1235         42
  33.1420         35
  33.1606         41
  33.1792         39
  33.1978         55
  33.2163         46
  33.2349         49
  33.2535         50
  33.2721         42
  33.2906         39
  33.3092         52
  33.3278         43
  33.3464         40
  33.3649         37
  33.3835         39
  33.4021         61
  33.4207         50
  33.4392         54
  33.4578         41
  33.4764         42
  33.4950         49
  33.5135         44
  33.5321         44
  33.5507         46
  33.5693         47
  33.5878         44
  33.6064         50
  33.6250         38
  33.6436         29
  33.6622         52
  33.6807         39
  33.6993         54
  33.7179         43
  33.7365         43
  33.7550         52
  33.7736         42
  33.7922         39
  33.8108         34
  33.8293         35
  33.8479         38
  33.8665         52
  33.8851         44
  33.9036         50
  33.9222         39
  33.9408         54
  33.9594         42
  33.9779         34
  33.9965         32
  34.0151         42
  34.0337         39
  34.0522         39
  34.0708         33
  34.0894         36
  34.1080         45
  34.1265         36
  34.1451         48
  34.1637         35
  34.1823         48
  34.2008         44
  34.2194         42
  34.2380         45
  34.2566         53
  34.2751         42
  34.2937         45
  34.3123         51
  34.3309         28
  34.3494         35
  34.3680         37
  34.3866         33
  34.4052         43
  34.4238         38
  34.4423         52
  34.4609         50
  34.4795         47
  34.4981         39
  34.5166         35
  34.5352         37
  34.5538         35
  34.5724         40
  34.5909         52
  34.6095         49
  34.6281         36
  34.6467         39
  34.6652         57
  34.6838         57
  34.7024         58
  34.7210         54
  34.7395         53
  34.7581         76
  34.7767         41
  34.7953         54
  34.8138         56
  34.8324         39
  34.8510         46
  34.8696         46
  34.8881         39
  34.9067         49
  34.9253         43
  34.9439         39
  34.9624         45
  34.9810         47
  34.9996         34
  35.0182         36
  35.0367         26
  35.0553         31
  35.0739         36
  35.0925         41
  35.1110         31
  35.1296         38
  35.1482         34
  35.1668         35
  35.1854         42
  35.2039         35
  35.2225         33
  35.2411         43
  35.2597         37
  35.2782         46
  35.2968         43
  35.3154         41
  35.3340         26
  35.3525         26
  35.3711         32
  35.3897         39
  35.4083         40
  35.4268         42
  35.4454         32
  35.4640         27
  35.4826         37
  35.5011         35
  35.5197         34
  35.5383         36
  35.5569         42
  35.5754         35
  35.5940         36
  35.6126         36
  35.6312         23
  35.6497         36
  35.6683         41
  35.6869         35
  35.7055         38
  35.7240         44
  35.7426         37
  35.7612         30
  35.7798         36
  35.7983         32
  35.8169         33
  35.8355         35
  35.8541         42
  35.8726         34
  35.8912         34
  35.9098         37
  35.9284         33
  35.9469         34
  35.9655         34
  35.9841         33
  36.0027         38
  36.0213         37
  36.0398         39
  36.0584         44
  36.0770         39
  36.0956         28
  36.1141         34
  36.1327         31
  36.1513         29
  36.1699         34
  36.1884         27
  36.2070         32
  36.2256         39
  36.2442         43
  36.2627         37
  36.2813         28
  36.2999         33
  36.3185         26
  36.3370         31
  36.3556         34
  36.3742         37
  36.3928         40
  36.4113         40
  36.4299         29
  36.4485         44
  36.4671         47
  36.4856         34
  36.5042         28
  36.5228         32
  36.5414         39
  36.5599         39
  36.5785         36
  36.5971         40
  36.6157         34
  36.6342         27
  36.6528         33
  36.6714         39
  36.6900         30
  36.7085         32
  36.7271         28
  36.7457         32
  36.7643         41
  36.7829         29
  36.8014         28
  36.8200         24
  36.8386         29
  36.8572         32
  36.8757         32
  36.8943         29
  36.9129         35
  36.9315         39
  36.9500         34
  36.9686         30
  36.9872         33
  37.0058         26
  37.0243         33
  37.0429         39
  37.0615         50
  37.0801         35
  37.0986         36
  37.1172         37
  37.1358         34
  37.1544         31
  37.1729         52
  37.1915         29
  37.2101         26
  37.2287         34
  37.2472         36
  37.2658         22
  37.2844         52
  37.3030         31
  37.3215         46
  37.3401         33
  37.3587         27
  37.3773         33
  37.3958         45
  37.4144         57
  37.4330         62
  37.4516         42
  37.4701         34
  37.4887         42
  37.5073         49
  37.5259         50
  37.5445         44
  37.5630         35
  37.5816         45
  37.6002         40
  37.6188         34
  37.6373         38
  37.6559         35
  37.6745         32
  37.6931         21
  37.7116         30
  37.7302         31
  37.7488         39
  37.7674         30
  37.7859         38
  37.8045         32
  37.8231         23
  37.8417         26
  37.8602         24
  37.8788         27
  37.8974         33
  37.9160         30
  37.9345         25
  37.9531         25
  37.9717         25
  37.9903         33
  38.0088         28
  38.0274         25
  38.0460         28
  38.0646         34
  38.0831         29
  38.1017         29
  38.1203         25
  38.1389         22
  38.1574         35
  38.1760         22
  38.1946         26
  38.2132         30
  38.2317         23
  38.2503         38
  38.2689         29
  38.2875         32
  38.3061         31
  38.3246         30
  38.3432         30
  38.3618         35
  38.3804         34
  38.3989         33
  38.4175         25
  38.4361         40
  38.4547         27
  38.4732         29
  38.4918         22
  38.5104         33
  38.5290         44
  38.5475         24
  38.5661         30
  38.5847         34
  38.6033         30
  38.6218         27
  38.6404         18
  38.6590         33
  38.6776         27
  38.6961         28
  38.7147         29
  38.7333         34
  38.7519         39
  38.7704         30
  38.7890         37
  38.8076         38
  38.8262         28
  38.8447         36
  38.8633         34
  38.8819         31
  38.9005         27
  38.9190         35
  38.9376         30
  38.9562         20
  38.9748         37
  38.9933         34
  39.0119         30
  39.0305         35
  39.0491         30
  39.0677         26
  39.0862         30
  39.1048         29
  39.1234         24
  39.1420         27
  39.1605         26
  39.1791         28
  39.1977         32
  39.2163         23
  39.2348         35
  39.2534         36
  39.2720         34
  39.2906         17
  39.3091         22
  39.3277         38
  39.3463         24
  39.3649         31
  39.3834         29
  39.4020         38
  39.4206         26
  39.4392         24
  39.4577         32
  39.4763         33
  39.4949         26
  39.5135         35
  39.5320         31
  39.5506         26
  39.5692         30
  39.5878         37
  39.6063         35
  39.6249         26
  39.6435         28
  39.6621         27
  39.6806         31
  39.6992         24
  39.7178         31
  39.7364         37
  39.7549         36
  39.7735         19
  39.7921         30
  39.8107         29
  39.8293         31
  39.8478         30
  39.8664         38
  39.8850         23
  39.9036         28
  39.9221         35
  39.9407         31
  39.9593         27
  39.9779         29
  39.9964         29
  40.0150         32
  40.0336         35
  40.0522         41
  40.0707         26
  40.0893         35
  40.1079         23
  40.1265         32
  40.1450         26
  40.1636         21
  40.1822         26
  40.2008         24
  40.2193         31
  40.2379         30
  40.2565         25
  40.2751         26
  40.2936         38
  40.3122         32
  40.3308         23
  40.3494         20
  40.3679         24
  40.3865         24
  40.4051         31
  40.4237         28
  40.4422         17
  40.4608         21
  40.4794         37
  40.4980         26
  40.5165         34
  40.5351         31
  40.5537         35
  40.5723         39
  40.5908         34
  40.6094         27
  40.6280         26
  40.6466         19
  40.6652         23
  40.6837         28
  40.7023         24
  40.7209         27
  40.7395         38
  40.7580         40
  40.7766         21
  40.7952         31
  40.8138         27
  40.8323         36
  40.8509         24
  40.8695         20
  40.8881         33
  40.9066         31
  40.9252         32
  40.9438         36
  40.9624         21
  40.9809         29
  40.9995         23
  41.0181         22
  41.0367         29
  41.0552         28
  41.0738         27
  41.0924         22
  41.1110         26
  41.1295         26
  41.1481         29
  41.1667         22
  41.1853         17
  41.2038         33
  41.2224         19
  41.2410         19
  41.2596         20
  41.2781         28
  41.2967         23
  41.3153         34
  41.3339         29
  41.3524         22
  41.3710         29
  41.3896         26
  41.4082         26
  41.4268         25
  41.4453         30
  41.4639         30
  41.4825         27
  41.5011         24
  41.5196         24
  41.5382         23
  41.5568         35
  41.5754         27
  41.5939         29
  41.6125         19
  41.6311         26
  41.6497         24
  41.6682         25
  41.6868         23
  41.7054         25
  41.7240         25
  41.7425         38
  41.7611         27
  41.7797         27
  41.7983         34
  41.8168         23
  41.8354         20
  41.8540         20
  41.8726         25
  41.8911         23
  41.9097         25
  41.9283         32
  41.9469         31
  41.9654         27
  41.9840         17
  42.0026         24
  42.0212         30
  42.0397         23
  42.0583         34
  42.0769         32
  42.0955         21
  42.1140         28
  42.1326         36
  42.1512         32
  42.1698         24
  42.1884         25
  42.2069         19
  42.2255         20
  42.2441         31
  42.2627         25
  42.2812         35
  42.2998         23
  42.3184         35
  42.3370         19
  42.3555         29
  42.3741         28
  42.3927         30
  42.4113         24
  42.4298         29
  42.4484         29
  42.4670         15
  42.4856         36
  42.5041         17
  42.5227         21
  42.5413         25
  42.5599         20
  42.5784         28
  42.5970         21
  42.6156         24
  42.6342         25
  42.6527         24
  42.6713         31
  42.6899         25
  42.7085         21
  42.7270         27
  42.7456         36
  42.7642         30
  42.7828         25
  42.8013         30
  42.8199         24
  42.8385         21
  42.8571         23
  42.8756         29
  42.8942         25
  42.9128         21
  42.9314         26
  42.9500         32
  42.9685         27
  42.9871         32
  43.0057         26
  43.0243         34
  43.0428         32
  43.0614         30
  43.0800         18
  43.0986         23
  43.1171         29
  43.1357         21
  43.1543         31
  43.1729         25
  43.1914         25
  43.2100         40
  43.2286         42
  43.2472         33
  43.2657         34
  43.2843         33
  43.3029         27
  43.3215         31
  43.3400         27
  43.3586         26
  43.3772         22
  43.3958         34
  43.4143         28
  43.4329         30
  43.4515         47
  43.4701         28
  43.4886         54
  43.5072         45
  43.5258         34
  43.5444         26
  43.5629         34
  43.5815         35
  43.6001         42
  43.6187         31
  43.6372         30
  43.6558         31
  43.6744         27
  43.6930         20
  43.7116         23
  43.7301         42
  43.7487         29
  43.7673         17
  43.7859         33
  43.8044         29
  43.8230         24
  43.8416         27
  43.8602         24
  43.8787         40
  43.8973         34
  43.9159         30
  43.9345         18
  43.9530         25
  43.9716         37
  43.9902         34
  44.0088         26
  44.0273         26
  44.0459         41
  44.0645         20
  44.0831         24
  44.1016         18
  44.1202         20
  44.1388         32
  44.1574         31
  44.1759         23
  44.1945         31
  44.2131         23
  44.2317         27
  44.2502         30
  44.2688         34
  44.2874         34
  44.3060         33
  44.3245         25
  44.3431         29
  44.3617         28
  44.3803         38
  44.3988         28
  44.4174         14
  44.4360         33
  44.4546         33
  44.4732         30
  44.4917         30
  44.5103         35
  44.5289         30
  44.5475         20
  44.5660         34
  44.5846         24
  44.6032         27
  44.6218         25
  44.6403         19
  44.6589         37
  44.6775         26
  44.6961         29
  44.7146         27
  44.7332         24
  44.7518         28
  44.7704         23
  44.7889         26
  44.8075         33
  44.8261         32
  44.8447         36
  44.8632         27
  44.8818         26
  44.9004         28
  44.9190         28
  44.9375         34
  44.9561         27
  44.9747         34
  44.9933         26
  45.0118         36
  45.0304         22
  45.0490         27
  45.0676         30
  45.0861         24
  45.1047         25
  45.1233         31
  45.1419         24
  45.1604         15
  45.1790         23
  45.1976         26
  45.2162         22
  45.2347         23
  45.2533         21
  45.2719         25
  45.2905         24
  45.3091         29
  45.3276         25
  45.3462         16
  45.3648         29
  45.3834         25
  45.4019         22
  45.4205         19
  45.4391         37
  45.4577         26
  45.4762         28
  45.4948         26
  45.5134         32
  45.5320         39
  45.5505         24
  45.5691         23
  45.5877         25
  45.6063         25
  45.6248         22
  45.6434         20
  45.6620         19
  45.6806         21
  45.6991         26
  45.7177         25
  45.7363         33
  45.7549         24
  45.7734         25
  45.7920         18
  45.8106         11
  45.8292         22
  45.8477         28
  45.8663         23
  45.8849         20
  45.9035         22
  45.9220         22
  45.9406         19
  45.9592         22
  45.9778         19
  45.9963         19
  46.0149         23
  46.0335         25
  46.0521         31
  46.0707         27
  46.0892         21
  46.1078         31
  46.1264         31
  46.1450         30
  46.1635         41
  46.1821         24
  46.2007         27
  46.2193         26
  46.2378         27
  46.2564         14
  46.2750         22
  46.2936         29
  46.3121         21
  46.3307         20
  46.3493         33
  46.3679         25
  46.3864         32
  46.4050         23
  46.4236         31
  46.4422         26
  46.4607         27
  46.4793         22
  46.4979         26
  46.5165         26
  46.5350         25
  46.5536         28
  46.5722         26
  46.5908         18
  46.6093         25
  46.6279         23
  46.6465         37
  46.6651         24
  46.6836         25
  46.7022         19
  46.7208         23
  46.7394         22
  46.7579         23
  46.7765         25
  46.7951         20
  46.8137         32
  46.8323         30
  46.8508         24
  46.8694         19
  46.8880         18
  46.9066         22
  46.9251         25
  46.9437         29
  46.9623         21
  46.9809         31
  46.9994         26
  47.0180         29
  47.0366         23
  47.0552         26
  47.0737         21
  47.0923         23
  47.1109         24
  47.1295         21
  47.1480         24
  47.1666         20
  47.1852         32
  47.2038         20
  47.2223         21
  47.2409         26
  47.2595         30
  47.2781         19
  47.2966         24
  47.3152         14
  47.3338         18
  47.3524         16
  47.3709         38
  47.3895         30
  47.4081         22
  47.4267         21
  47.4452         25
  47.4638         18
  47.4824         23
  47.5010         21
  47.5195         24
  47.5381         17
  47.5567         29
  47.5753         25
  47.5939         23
  47.6124         24
  47.6310         26
  47.6496         12
  47.6682         27
  47.6867         26
  47.7053         29
  47.7239         32
  47.7425         24
  47.7610         24
  47.7796         32
  47.7982         27
  47.8168         25
  47.8353         21
  47.8539         24
  47.8725         21
  47.8911         15
  47.9096         19
  47.9282         22
  47.9468         17
  47.9654         25
  47.9839         27
  48.0025         25
  48.0211         28
  48.0397         23
  48.0582         22
  48.0768         17
  48.0954         19
  48.1140         17
  48.1325         21
  48.1511         26
  48.1697         24
  48.1883         23
  48.2068         30
  48.2254         24
  48.2440         23
  48.2626         22
  48.2811         21
  48.2997         34
  48.3183         30
  48.3369         19
  48.3555         16
  48.3740         27
  48.3926         28
  48.4112         27
  48.4298         33
  48.4483         23
  48.4669         17
  48.4855         23
  48.5041         18
  48.5226         28
  48.5412         20
  48.5598         20
  48.5784         19
  48.5969         19
  48.6155         30
  48.6341         20
  48.6527         30
  48.6712         22
  48.6898         29
  48.7084         24
  48.7270         30
  48.7455         18
  48.7641         19
  48.7827         29
  48.8013         14
  48.8198         21
  48.8384         21
  48.8570         26
  48.8756         29
  48.8941         34
  48.9127         45
  48.9313         43
  48.9499         42
  48.9684         51
  48.9870         24
  49.0056         28
  49.0242         30
  49.0427         21
  49.0613         29
  49.0799         31
  49.0985         28
  49.1171         36
  49.1356         28
  49.1542         21
  49.1728         28
  49.1914         20
  49.2099         28
  49.2285         30
  49.2471         20
  49.2657         27
  49.2842         31
  49.3028         23
  49.3214         23
  49.3400         25
  49.3585         22
  49.3771         22
  49.3957         28
  49.4143         18
  49.4328         20
  49.4514         29
  49.4700         26
  49.4886         33
  49.5071         19
  49.5257         24
  49.5443         19
  49.5629         28
  49.5814         16
  49.6000         28
  49.6186         18
  49.6372         23
  49.6557         26
  49.6743         31
  49.6929         20
  49.7115         12
  49.7300         16
  49.7486         18
  49.7672         23
  49.7858         17
  49.8043         20
  49.8229         14
  49.8415         19
  49.8601         21
  49.8786         22
  49.8972         29
  49.9158         26
  49.9344         26
  49.9530         25
  49.9715         15
  49.9901         21
  50.0087         27
  50.0273         18
  50.0458         23
  50.0644         31
  50.0830         20
  50.1016         13
  50.1201         31
  50.1387         43
  50.1573         25
  50.1759         21
  50.1944         23
  50.2130         25
  50.2316          9
  50.2502         19
  50.2687         18
  50.2873         20
  50.3059         21
  50.3245         20
  50.3430         26
  50.3616         16
  50.3802         24
  50.3988         21
  50.4173         17
  50.4359         26
  50.4545         24
  50.4731         17
  50.4916         23
  50.5102         20
  50.5288         27
  50.5474         14
  50.5659         27
  50.5845         24
  50.6031         28
  50.6217         18
  50.6402         33
  50.6588         31
  50.6774         19
  50.6960         27
  50.7146         13
  50.7331         21
  50.7517         22
  50.7703         26
  50.7889         27
  50.8074         22
  50.8260         23
  50.8446         22
  50.8632         17
  50.8817         20
  50.9003         25
  50.9189         22
  50.9375         21
  50.9560         17
  50.9746         22
  50.9932         27
  51.0118         19
  51.0303         17
  51.0489         21
  51.0675         24
  51.0861         20
  51.1046         19
  51.1232         34
  51.1418         25
  51.1604         23
  51.1789         16
  51.1975         18
  51.2161         14
  51.2347         24
  51.2532         16
  51.2718         18
  51.2904         25
  51.3090         24
  51.3275         25
  51.3461         30
  51.3647         42
  51.3833         26
  51.4018         27
  51.4204         21
  51.4390         28
  51.4576         26
  51.4762         26
  51.4947         26
  51.5133         23
  51.5319         20
  51.5505         22
  51.5690         23
  51.5876         14
  51.6062         21
  51.6248         22
  51.6433         24
  51.6619         18
  51.6805         19
  51.6991         29
  51.7176         17
  51.7362         23
  51.7548         20
  51.7734         33
  51.7919         23
  51.8105         28
  51.8291         30
  51.8477         25
  51.8662         13
  51.8848         18
  51.9034         24
  51.9220         27
  51.9405         22
  51.9591         14
  51.9777         23
  51.9963         24
  52.0148         23
  52.0334         28
  52.0520         24
  52.0706         16
  52.0891         17
  52.1077         22
  52.1263         28
  52.1449         20
  52.1634         17
  52.1820         33
  52.2006         14
  52.2192         22
  52.2378         15
  52.2563         22
  52.2749         22
  52.2935         14
  52.3121         25
  52.3306         21
  52.3492         11
  52.3678         19
  52.3864         23
  52.4049         28
  52.4235         26
  52.4421         17
  52.4607         22
  52.4792         17
  52.4978         16
  52.5164         28
  52.5350         19
  52.5535         35
  52.5721         16
  52.5907         16
  52.6093         21
  52.6278         26
  52.6464         26
  52.6650         23
  52.6836         23
  52.7021         20
  52.7207         20
  52.7393         25
  52.7579         15
  52.7764         26
  52.7950         32
  52.8136         18
  52.8322         13
  52.8507         26
  52.8693         21
  52.8879         21
  52.9065         26
  52.9250         18
  52.9436         15
  52.9622         19
  52.9808         21
  52.9994         17
  53.0179         21
  53.0365         24
  53.0551         16
  53.0737         28
  53.0922         32
  53.1108         30
  53.1294         22
  53.1480         24
  53.1665         22
  53.1851         15
  53.2037         14
  53.2223         33
  53.2408         19
  53.2594         21
  53.2780         24
  53.2966         20
  53.3151         27
  53.3337         19
  53.3523         29
  53.3709         19
  53.3894         27
  53.4080         22
  53.4266         18
  53.4452         12
  53.4637         27
  53.4823         20
  53.5009         15
  53.5195         18
  53.5380         20
  53.5566         23
  53.5752         17
  53.5938         21
  53.6123         17
  53.6309         18
  53.6495         19
  53.6681         17
  53.6866         23
  53.7052         23
  53.7238         26
  53.7424         17
  53.7610         20
  53.7795         27
  53.7981         23
  53.8167         25
  53.8353         23
  53.8538         15
  53.8724         19
  53.8910         22
  53.9096         24
  53.9281         20
  53.9467         27
  53.9653         27
  53.9839         27
  54.0024         30
  54.0210         36
  54.0396         25
  54.0582         27
  54.0767         23
  54.0953         26
  54.1139         26
  54.1325         32
  54.1510         21
  54.1696         28
  54.1882         24
  54.2068         24
  54.2253         18
  54.2439         24
  54.2625         24
  54.2811         11
  54.2996         23
  54.3182         22
  54.3368         27
  54.3554          9
  54.3739         15
  54.3925         24
  54.4111         27
  54.4297         24
  54.4482         25
  54.4668         27
  54.4854         24
  54.5040         25
  54.5225         19
  54.5411         22
  54.5597         22
  54.5783         23
  54.5969         20
  54.6154         21
  54.6340         26
  54.6526         25
  54.6712         12
  54.6897         21
  54.7083         16
  54.7269         20
  54.7455         26
  54.7640         16
  54.7826         23
  54.8012         12
  54.8198         20
  54.8383         19
  54.8569         21
  54.8755         17
  54.8941         18
  54.9126         27
  54.9312         24
  54.9498         23
  54.9684         24
  54.9869         17
  55.0055         24
  55.0241         22
  55.0427         16
  55.0612         21
  55.0798         16
  55.0984         19
  55.1170         28
  55.1355         16
  55.1541         18
  55.1727         25
  55.1913         19
  55.2098         30
  55.2284         22
  55.2470         22
  55.2656         29
  55.2841         23
  55.3027         15
  55.3213         19
  55.3399         25
  55.3585         20
  55.3770         25
  55.3956         19
  55.4142         16
  55.4328         18
  55.4513         21
  55.4699         16
  55.4885         24
  55.5071         23
  55.5256         17
  55.5442         20
  55.5628         24
  55.5814         25
  55.5999         12
  55.6185         29
  55.6371         16
  55.6557         18
  55.6742         19
  55.6928         15
  55.7114         21
  55.7300         26
  55.7485         19
  55.7671         24
  55.7857         19
  55.8043         12
  55.8228         11
  55.8414         18
  55.8600         21
  55.8786         20
  55.8971         26
  55.9157         23
  55.9343         19
  55.9529         19
  55.9714         15
  55.9900         13
  56.0086         26
  56.0272         17
  56.0457         24
  56.0643         19
  56.0829         22
  56.1015         16
  56.1201         27
  56.1386         28
  56.1572         27
  56.1758         25
  56.1944         34
  56.2129         29
  56.2315         24
  56.2501         24
  56.2687         32
  56.2872         24
  56.3058         17
  56.3244         30
  56.3430         18
  56.3615         16
  56.3801         25
  56.3987         20
  56.4173         29
  56.4358         24
  56.4544         19
  56.4730         17
  56.4916         14
  56.5101         20
  56.5287         27
  56.5473         21
  56.5659         20
  56.5844         20
  56.6030         23
  56.6216         17
  56.6402         18
  56.6587         21
  56.6773         22
  56.6959         19
  56.7145         22
  56.7330         19
  56.7516         18
  56.7702         16
  56.7888         24
  56.8073         16
  56.8259         18
  56.8445         19
  56.8631         25
  56.8817         22
  56.9002         19
  56.9188         25
  56.9374         20
  56.9560         15
  56.9745         16
  56.9931         21
  57.0117         18
  57.0303         14
  57.0488         23
  57.0674         10
  57.0860         29
  57.1046         19
  57.1231         20
  57.1417         12
  57.1603         18
  57.1789         20
  57.1974         24
  57.2160         17
  57.2346         22
  57.2532         33
  57.2717         28
  57.2903         15
  57.3089         17
  57.3275         18
  57.3460         14
  57.3646         18
  57.3832         11
  57.4018         22
  57.4203         15
  57.4389         16
  57.4575         19
  57.4761         14
  57.4946         20
  57.5132         17
  57.5318         19
  57.5504         19
  57.5689         11
  57.5875         16
  57.6061         22
  57.6247         20
  57.6433         17
  57.6618         10
  57.6804         22
  57.6990         17
  57.7176         20
  57.7361          9
  57.7547         23
  57.7733         17
  57.7919         13
  57.8104         22
  57.8290         20
  57.8476         27
  57.8662         23
  57.8847         16
  57.9033         24
  57.9219         16
  57.9405         24
  57.9590         19
  57.9776         25
  57.9962         22
  58.0148         24
  58.0333         26
  58.0519         15
  58.0705         20
  58.0891         32
  58.1076         16
  58.1262         24
  58.1448         21
  58.1634         18
  58.1819         21
  58.2005         20
  58.2191         23
  58.2377         24
  58.2562         30
  58.2748         14
  58.2934         23
  58.3120         15
  58.3305         29
  58.3491         17
  58.3677         17
  58.3863         12
  58.4049         27
  58.4234         25
  58.4420         20
  58.4606         25
  58.4792         15
  58.4977         22
  58.5163         28
  58.5349         20
  58.5535         18
  58.5720         17
  58.5906         18
  58.6092         19
  58.6278         16
  58.6463         25
  58.6649         24
  58.6835         17
  58.7021         26
  58.7206         18
  58.7392         22
  58.7578         19
  58.7764         24
  58.7949         18
  58.8135         10
  58.8321         16
  58.8507         29
  58.8692         21
  58.8878         20
  58.9064         17
  58.9250         22
  58.9435         25
  58.9621         22
  58.9807         15
  58.9993         19
  59.0178         18
  59.0364         20
  59.0550         19
  59.0736         26
  59.0921         21
  59.1107         18
  59.1293         22
  59.1479         25
  59.1664         21
  59.1850         15
  59.2036         17
  59.2222         16
  59.2408         22
  59.2593         27
  59.2779         20
  59.2965         21
  59.3151         12
  59.3336         12
  59.3522         16
  59.3708         28
  59.3894         24
  59.4079         15
  59.4265         17
  59.4451         23
  59.4637         22
  59.4822         12
  59.5008         18
  59.5194         29
  59.5380         21
  59.5565         16
  59.5751          9
  59.5937         26
  59.6123         18
  59.6308         18
  59.6494         29
  59.6680         20
  59.6866         22
  59.7051         24
  59.7237         22
  59.7423         18
  59.7609         17
  59.7794         24
  59.7980         16
  59.8166         21
  59.8352         20
  59.8537         20
  59.8723         20
  59.8909         19
  59.9095         24
  59.9280         20
  59.9466         20
  59.9652         21
  59.9838         21
  60.0024         29
