; (content of file Y:\Sam\Apurva-07-20-2022\puck4\ML_20220718_41_SJD_4_LaB6-2min.raw)
_FILEVERSION = 3
_SAMPLE = ML_20220718_41_SJD_4_LaB6-2min
_+SAMPLE = 
_SITE = USA
_USER = Administrator
_GONIOMETER_CODE = 20
; Goniometer : D8 theta/2theta, stage : Unknown
_ATTACHMENTS_CODE = 0
_GONIOMETER_RADIUS = 200.5
_FIXED_DIVSLIT = 0.6
_FIXED_SAMPLESLIT = 0
_SOLLER_SLITS = 2
_FIXED_DETSLIT = 9.55
_MONOCHROMATOR = 0
; Incident beam monochromator : None
_SOLLER_SLITS_2 = N
_THIN_FILM = N
_BETA_FILTER = Y
_FIXED_ANTISLIT = 5.89
_ANALYZER_CODE = 0
; Received beam analyzer : None
_DATEMEASURED = "26-Jul-2022 12:06:07"
_WL_UNIT = A
_WL1 = 1.5406
_WL2 = 1.54439
_WL3 = 1.39222
_WLRATIO = 0.5
_ANODE = Cu
_V4_INF_CREATOR = XRDWizard
_V4_INF_CREATOR_VERSION = V2.9.0.22
_V4_INF_WIZARD_VERSION = V2.9.0.22
_V4_INF_WIZARD_ADDINS = V2.9.0.22
_V4_INF_WIZARD_DOCTYPE = XRD
_V4_INF_OSUSER = McQueenLab
_V4_INF_USER = Administrator
_V4_INF_SITE = USA
_V4_INF_SAMPLEID = ML_20220718_41_SJD_4_LaB6-2min

; Data for range 1
_DRIVE = COUPLED
_STEPTIME = 5.64
_STEPSIZE = 0.0185756
_STEPMODE = C
_START = 5
_THETA = 2.5
_2THETA = 5
_KHI = 0
_PHI = 0
_X = 0
_Y = 0
_Z = 0
_DETECTOR = 5
; Detector type : Unknown
_DETECTORSLIT = unkn
_AUX1 = 0
_AUX2 = 0
_AUX3 = 0
_TIMESTARTED = 15
_TEMP_RATE = -1
_TEMP_DELAY = -1
_KV = 40
_MA = 40
_RANGE_WL = 1.5406
_3DPLANE = 0
_V4_ADDITIONALDETECTOR = 257
_V4_PSD2THETA = 3.3706
_V4_PSDCHANNEL1 = 0
_V4_PSDAPERTURE = 12.68
_V4_PSDTYPE = 5
_V4_PSDFIXED = 0
_V4_COUNTERS_MASK = 4096
_V4_DRIVES_MASK = 0
_V4_ENCODERS_MASK = 0
_2THETACOUNTS = 1
; 2THETA  PSD
   5.0000        126
   5.0186        163
   5.0372        113
   5.0557        108
   5.0743        127
   5.0929        117
   5.1115        125
   5.1300        118
   5.1486        120
   5.1672        139
   5.1858        117
   5.2043        118
   5.2229        129
   5.2415        130
   5.2601        126
   5.2786        130
   5.2972        125
   5.3158        122
   5.3344        120
   5.3529        101
   5.3715        120
   5.3901        127
   5.4087        128
   5.4272        127
   5.4458        114
   5.4644        110
   5.4830        111
   5.5015        107
   5.5201        106
   5.5387        112
   5.5573        115
   5.5758        125
   5.5944        104
   5.6130        128
   5.6316         95
   5.6501        115
   5.6687        113
   5.6873         94
   5.7059        104
   5.7244        113
   5.7430        102
   5.7616         94
   5.7802        110
   5.7988         92
   5.8173        102
   5.8359        108
   5.8545        120
   5.8731        101
   5.8916         91
   5.9102         88
   5.9288        123
   5.9474        106
   5.9659        107
   5.9845         90
   6.0031        103
   6.0217         91
   6.0402        103
   6.0588         95
   6.0774         88
   6.0960         98
   6.1145         98
   6.1331         96
   6.1517         95
   6.1703         85
   6.1888         97
   6.2074         94
   6.2260         87
   6.2446        104
   6.2631        107
   6.2817         98
   6.3003         99
   6.3189         83
   6.3374         90
   6.3560         77
   6.3746         84
   6.3932        100
   6.4117         91
   6.4303         94
   6.4489         85
   6.4675         89
   6.4860         77
   6.5046        122
   6.5232         92
   6.5418         69
   6.5604         76
   6.5789         85
   6.5975         98
   6.6161         94
   6.6347         75
   6.6532         70
   6.6718         92
   6.6904         76
   6.7090        105
   6.7275         81
   6.7461         84
   6.7647         77
   6.7833         86
   6.8018         86
   6.8204         79
   6.8390         81
   6.8576         75
   6.8761         77
   6.8947         81
   6.9133         90
   6.9319         76
   6.9504         72
   6.9690         82
   6.9876         97
   7.0062         67
   7.0247         75
   7.0433         97
   7.0619         76
   7.0805         83
   7.0990         77
   7.1176         70
   7.1362         77
   7.1548         73
   7.1733         83
   7.1919         77
   7.2105         86
   7.2291         82
   7.2476         77
   7.2662         70
   7.2848         81
   7.3034         74
   7.3220         84
   7.3405         80
   7.3591         81
   7.3777         75
   7.3963         68
   7.4148         77
   7.4334         76
   7.4520         94
   7.4706         76
   7.4891         89
   7.5077         82
   7.5263         95
   7.5449         88
   7.5634         85
   7.5820         86
   7.6006         82
   7.6192         84
   7.6377         82
   7.6563         99
   7.6749         74
   7.6935         75
   7.7120         76
   7.7306         99
   7.7492         78
   7.7678         92
   7.7863         73
   7.8049         98
   7.8235         84
   7.8421         93
   7.8606         77
   7.8792         93
   7.8978         95
   7.9164         78
   7.9349         95
   7.9535         99
   7.9721        104
   7.9907         95
   8.0092         93
   8.0278        101
   8.0464         88
   8.0650        103
   8.0835         95
   8.1021         93
   8.1207         91
   8.1393         90
   8.1579         96
   8.1764         85
   8.1950         98
   8.2136         94
   8.2322         97
   8.2507        109
   8.2693        102
   8.2879         96
   8.3065         75
   8.3250         94
   8.3436        108
   8.3622         89
   8.3808         96
   8.3993        113
   8.4179         92
   8.4365         97
   8.4551        116
   8.4736        107
   8.4922         87
   8.5108        112
   8.5294         92
   8.5479         86
   8.5665        117
   8.5851         91
   8.6037         97
   8.6222        105
   8.6408         87
   8.6594        102
   8.6780         94
   8.6965        110
   8.7151        103
   8.7337         95
   8.7523         93
   8.7708        110
   8.7894         93
   8.8080        109
   8.8266        128
   8.8451        128
   8.8637        105
   8.8823        103
   8.9009         97
   8.9195         96
   8.9380        110
   8.9566        107
   8.9752         96
   8.9938        104
   9.0123         90
   9.0309         83
   9.0495        116
   9.0681        100
   9.0866        114
   9.1052        105
   9.1238        106
   9.1424         95
   9.1609        102
   9.1795        112
   9.1981         87
   9.2167        105
   9.2352        116
   9.2538        118
   9.2724        119
   9.2910         89
   9.3095         95
   9.3281        109
   9.3467        114
   9.3653         90
   9.3838        110
   9.4024        116
   9.4210        122
   9.4396        102
   9.4581        121
   9.4767         98
   9.4953        108
   9.5139        109
   9.5324        115
   9.5510        147
   9.5696        114
   9.5882        103
   9.6067        108
   9.6253        113
   9.6439        112
   9.6625        117
   9.6811        102
   9.6996        120
   9.7182        131
   9.7368        104
   9.7554        114
   9.7739        125
   9.7925        127
   9.8111        107
   9.8297        140
   9.8482        106
   9.8668        131
   9.8854        124
   9.9040        107
   9.9225        122
   9.9411        118
   9.9597        115
   9.9783        109
   9.9968        106
  10.0154        123
  10.0340        105
  10.0526        114
  10.0711        133
  10.0897        110
  10.1083        136
  10.1269        117
  10.1454        147
  10.1640        105
  10.1826        132
  10.2012        121
  10.2197        113
  10.2383        137
  10.2569        133
  10.2755        139
  10.2940        112
  10.3126        126
  10.3312        120
  10.3498        125
  10.3683        119
  10.3869        131
  10.4055        108
  10.4241        108
  10.4427        103
  10.4612        111
  10.4798        122
  10.4984        127
  10.5170        124
  10.5355        115
  10.5541        121
  10.5727        130
  10.5913        108
  10.6098        121
  10.6284        136
  10.6470        140
  10.6656        137
  10.6841        111
  10.7027        122
  10.7213        125
  10.7399        131
  10.7584        131
  10.7770        119
  10.7956        121
  10.8142        108
  10.8327        122
  10.8513        112
  10.8699        110
  10.8885        115
  10.9070        119
  10.9256         95
  10.9442         79
  10.9628        114
  10.9813        104
  10.9999        113
  11.0185        116
  11.0371        117
  11.0556        112
  11.0742        119
  11.0928        102
  11.1114        118
  11.1299        124
  11.1485        124
  11.1671        133
  11.1857        114
  11.2043        113
  11.2228        124
  11.2414        117
  11.2600        106
  11.2786        120
  11.2971        123
  11.3157        143
  11.3343        117
  11.3529        132
  11.3714        119
  11.3900        114
  11.4086        121
  11.4272        109
  11.4457        116
  11.4643        115
  11.4829        132
  11.5015        112
  11.5200        122
  11.5386        117
  11.5572        110
  11.5758        109
  11.5943        121
  11.6129         99
  11.6315        107
  11.6501        119
  11.6686        108
  11.6872        121
  11.7058        111
  11.7244        115
  11.7429        106
  11.7615        113
  11.7801        127
  11.7987        128
  11.8172        122
  11.8358        128
  11.8544        107
  11.8730        110
  11.8915        100
  11.9101        115
  11.9287        115
  11.9473        126
  11.9659        119
  11.9844        134
  12.0030        101
  12.0216        113
  12.0402        107
  12.0587        101
  12.0773         99
  12.0959        118
  12.1145        127
  12.1330         99
  12.1516        125
  12.1702        111
  12.1888        117
  12.2073        106
  12.2259        104
  12.2445        107
  12.2631        102
  12.2816         99
  12.3002        104
  12.3188        118
  12.3374        105
  12.3559        110
  12.3745         95
  12.3931        109
  12.4117        125
  12.4302        103
  12.4488         95
  12.4674        117
  12.4860        107
  12.5045        117
  12.5231        105
  12.5417        119
  12.5603        102
  12.5788        113
  12.5974        109
  12.6160        102
  12.6346        107
  12.6531        110
  12.6717         85
  12.6903         98
  12.7089        111
  12.7274        103
  12.7460        109
  12.7646        103
  12.7832        100
  12.8018         91
  12.8203        105
  12.8389         95
  12.8575         95
  12.8761        112
  12.8946        125
  12.9132        107
  12.9318        101
  12.9504        108
  12.9689        114
  12.9875        106
  13.0061         94
  13.0247        101
  13.0432        119
  13.0618        100
  13.0804         86
  13.0990        111
  13.1175         93
  13.1361        105
  13.1547        105
  13.1733        103
  13.1918        102
  13.2104         93
  13.2290        107
  13.2476         88
  13.2661         97
  13.2847        104
  13.3033        106
  13.3219         92
  13.3404         99
  13.3590         96
  13.3776        115
  13.3962        108
  13.4147         85
  13.4333         92
  13.4519         94
  13.4705        106
  13.4890         81
  13.5076         90
  13.5262        102
  13.5448         87
  13.5634         93
  13.5819         97
  13.6005         84
  13.6191         73
  13.6377         90
  13.6562         96
  13.6748         92
  13.6934         90
  13.7120         96
  13.7305         98
  13.7491         95
  13.7677         97
  13.7863         96
  13.8048        102
  13.8234         98
  13.8420         86
  13.8606         81
  13.8791         68
  13.8977         76
  13.9163         92
  13.9349         85
  13.9534         86
  13.9720        102
  13.9906         96
  14.0092         84
  14.0277        107
  14.0463         93
  14.0649         85
  14.0835         95
  14.1020         96
  14.1206         93
  14.1392        114
  14.1578         87
  14.1763         95
  14.1949         88
  14.2135         92
  14.2321        101
  14.2506         82
  14.2692        104
  14.2878         85
  14.3064        110
  14.3250         94
  14.3435        101
  14.3621         94
  14.3807         99
  14.3993         77
  14.4178         64
  14.4364         75
  14.4550         94
  14.4736         97
  14.4921         85
  14.5107         85
  14.5293        103
  14.5479         70
  14.5664         91
  14.5850         84
  14.6036         79
  14.6222         88
  14.6407         99
  14.6593         90
  14.6779         95
  14.6965         80
  14.7150         67
  14.7336         89
  14.7522         86
  14.7708         79
  14.7893         89
  14.8079         84
  14.8265         92
  14.8451         87
  14.8636         82
  14.8822         81
  14.9008         71
  14.9194         88
  14.9379         82
  14.9565         79
  14.9751         78
  14.9937         73
  15.0122         90
  15.0308         91
  15.0494         81
  15.0680         88
  15.0866         76
  15.1051         99
  15.1237         78
  15.1423         89
  15.1609         72
  15.1794         69
  15.1980         82
  15.2166         83
  15.2352         79
  15.2537         80
  15.2723         73
  15.2909         68
  15.3095         92
  15.3280         74
  15.3466         68
  15.3652         64
  15.3838         90
  15.4023         79
  15.4209         84
  15.4395         83
  15.4581         76
  15.4766         91
  15.4952         83
  15.5138         92
  15.5324         87
  15.5509         71
  15.5695         70
  15.5881         78
  15.6067         70
  15.6252         89
  15.6438         85
  15.6624         79
  15.6810         89
  15.6995         94
  15.7181         78
  15.7367         89
  15.7553         72
  15.7738         74
  15.7924         77
  15.8110         71
  15.8296         82
  15.8482         80
  15.8667         65
  15.8853         65
  15.9039         83
  15.9225         93
  15.9410         80
  15.9596         91
  15.9782         85
  15.9968         87
  16.0153         88
  16.0339         89
  16.0525         66
  16.0711         78
  16.0896         72
  16.1082         76
  16.1268         84
  16.1454         85
  16.1639         78
  16.1825         92
  16.2011         67
  16.2197         79
  16.2382         82
  16.2568         93
  16.2754        100
  16.2940         89
  16.3125         69
  16.3311         83
  16.3497         57
  16.3683         67
  16.3868         60
  16.4054         85
  16.4240         93
  16.4426         74
  16.4611         76
  16.4797         86
  16.4983         82
  16.5169         73
  16.5354         67
  16.5540         80
  16.5726         92
  16.5912         82
  16.6097         80
  16.6283         82
  16.6469         84
  16.6655         84
  16.6841        107
  16.7026         78
  16.7212         75
  16.7398         77
  16.7584         84
  16.7769         79
  16.7955         66
  16.8141         73
  16.8327         65
  16.8512         81
  16.8698         82
  16.8884         94
  16.9070         68
  16.9255         77
  16.9441         90
  16.9627         83
  16.9813         87
  16.9998         94
  17.0184         81
  17.0370         88
  17.0556         87
  17.0741         94
  17.0927         90
  17.1113         79
  17.1299         86
  17.1484         79
  17.1670         79
  17.1856         78
  17.2042         71
  17.2227         77
  17.2413         85
  17.2599         78
  17.2785         87
  17.2970         82
  17.3156         76
  17.3342         94
  17.3528         75
  17.3713         71
  17.3899         83
  17.4085         71
  17.4271         82
  17.4457         81
  17.4642         95
  17.4828         67
  17.5014         75
  17.5200         84
  17.5385         76
  17.5571         64
  17.5757         75
  17.5943         77
  17.6128         78
  17.6314         90
  17.6500         88
  17.6686         69
  17.6871         77
  17.7057         69
  17.7243         85
  17.7429         70
  17.7614         71
  17.7800         76
  17.7986         83
  17.8172         78
  17.8357         97
  17.8543         88
  17.8729         87
  17.8915         72
  17.9100         71
  17.9286         66
  17.9472         92
  17.9658         66
  17.9843         76
  18.0029         81
  18.0215         57
  18.0401         89
  18.0586         79
  18.0772         79
  18.0958         88
  18.1144         87
  18.1329         84
  18.1515         80
  18.1701         68
  18.1887         78
  18.2073         98
  18.2258         97
  18.2444         82
  18.2630         83
  18.2816         91
  18.3001         79
  18.3187         77
  18.3373         67
  18.3559         84
  18.3744         97
  18.3930         78
  18.4116         90
  18.4302         86
  18.4487         74
  18.4673         69
  18.4859         81
  18.5045         86
  18.5230         88
  18.5416         93
  18.5602         95
  18.5788         81
  18.5973         61
  18.6159         91
  18.6345         93
  18.6531         79
  18.6716         76
  18.6902         85
  18.7088         82
  18.7274         93
  18.7459         67
  18.7645         83
  18.7831         91
  18.8017         69
  18.8202         90
  18.8388         92
  18.8574         85
  18.8760         80
  18.8945         59
  18.9131         88
  18.9317        100
  18.9503         85
  18.9689         72
  18.9874         85
  19.0060         98
  19.0246         97
  19.0432         86
  19.0617         92
  19.0803         98
  19.0989         99
  19.1175         82
  19.1360         94
  19.1546         98
  19.1732         71
  19.1918        108
  19.2103         81
  19.2289         94
  19.2475        100
  19.2661         75
  19.2846         83
  19.3032         90
  19.3218         84
  19.3404         79
  19.3589         97
  19.3775         93
  19.3961         80
  19.4147         90
  19.4332         77
  19.4518         89
  19.4704        101
  19.4890         84
  19.5075         87
  19.5261         93
  19.5447         95
  19.5633         85
  19.5818         83
  19.6004         90
  19.6190         99
  19.6376         84
  19.6561         86
  19.6747         82
  19.6933         76
  19.7119         89
  19.7305         74
  19.7490         88
  19.7676         77
  19.7862         89
  19.8048         84
  19.8233         85
  19.8419         69
  19.8605         98
  19.8791         95
  19.8976         99
  19.9162         87
  19.9348        100
  19.9534         94
  19.9719        102
  19.9905         99
  20.0091         94
  20.0277         86
  20.0462         96
  20.0648         92
  20.0834         98
  20.1020         84
  20.1205         83
  20.1391         87
  20.1577         92
  20.1763         82
  20.1948        101
  20.2134         71
  20.2320         96
  20.2506         95
  20.2691         91
  20.2877         76
  20.3063         90
  20.3249         87
  20.3434         87
  20.3620         83
  20.3806         95
  20.3992         79
  20.4177         92
  20.4363         86
  20.4549         98
  20.4735         96
  20.4921        112
  20.5106         84
  20.5292         89
  20.5478         93
  20.5664         81
  20.5849         79
  20.6035        111
  20.6221        107
  20.6407         93
  20.6592         97
  20.6778         99
  20.6964        103
  20.7150        114
  20.7335         84
  20.7521         94
  20.7707        107
  20.7893         80
  20.8078         80
  20.8264        107
  20.8450         98
  20.8636         81
  20.8821        100
  20.9007         86
  20.9193         82
  20.9379         91
  20.9564         87
  20.9750         99
  20.9936        106
  21.0122        108
  21.0307        106
  21.0493         95
  21.0679         91
  21.0865        105
  21.1050         98
  21.1236        104
  21.1422         95
  21.1608        118
  21.1793        129
  21.1979        131
  21.2165        169
  21.2351        151
  21.2537        156
  21.2722        167
  21.2908        157
  21.3094        162
  21.3280        197
  21.3465        250
  21.3651        252
  21.3837        218
  21.4023        191
  21.4208        195
  21.4394        172
  21.4580        128
  21.4766        102
  21.4951        106
  21.5137        106
  21.5323         91
  21.5509         94
  21.5694        106
  21.5880        100
  21.6066         89
  21.6252         80
  21.6437         99
  21.6623        100
  21.6809         88
  21.6995         90
  21.7180        101
  21.7366        100
  21.7552         95
  21.7738         93
  21.7923        107
  21.8109         93
  21.8295         86
  21.8481         97
  21.8666         90
  21.8852         96
  21.9038        110
  21.9224         89
  21.9409        102
  21.9595         97
  21.9781        102
  21.9967         94
  22.0152        105
  22.0338        105
  22.0524         90
  22.0710         92
  22.0896        110
  22.1081         85
  22.1267        101
  22.1453         95
  22.1639         98
  22.1824        101
  22.2010         96
  22.2196         85
  22.2382         94
  22.2567         95
  22.2753        123
  22.2939         98
  22.3125         98
  22.3310        110
  22.3496         95
  22.3682        105
  22.3868        100
  22.4053        110
  22.4239         93
  22.4425         94
  22.4611        102
  22.4796         92
  22.4982        101
  22.5168        107
  22.5354        101
  22.5539         93
  22.5725        106
  22.5911         98
  22.6097         99
  22.6282         98
  22.6468        101
  22.6654         86
  22.6840         93
  22.7025        102
  22.7211         98
  22.7397         83
  22.7583        106
  22.7768        104
  22.7954         88
  22.8140         79
  22.8326         92
  22.8512        119
  22.8697         85
  22.8883        103
  22.9069         92
  22.9255         97
  22.9440        110
  22.9626        110
  22.9812         93
  22.9998         98
  23.0183        114
  23.0369         92
  23.0555         93
  23.0741        103
  23.0926         95
  23.1112         96
  23.1298         97
  23.1484         97
  23.1669         87
  23.1855         95
  23.2041        103
  23.2227         84
  23.2412         87
  23.2598         92
  23.2784         98
  23.2970        100
  23.3155         97
  23.3341        111
  23.3527        122
  23.3713        123
  23.3898         99
  23.4084         92
  23.4270        100
  23.4456         91
  23.4641         91
  23.4827         93
  23.5013        102
  23.5199         94
  23.5384         96
  23.5570         89
  23.5756        101
  23.5942         87
  23.6128        101
  23.6313        108
  23.6499        113
  23.6685        115
  23.6871         98
  23.7056         95
  23.7242        101
  23.7428        107
  23.7614        101
  23.7799        115
  23.7985         89
  23.8171        105
  23.8357        105
  23.8542        104
  23.8728         96
  23.8914        114
  23.9100         83
  23.9285        102
  23.9471        108
  23.9657        111
  23.9843         84
  24.0028         92
  24.0214        115
  24.0400         93
  24.0586        104
  24.0771         85
  24.0957         93
  24.1143         96
  24.1329        100
  24.1514        108
  24.1700        102
  24.1886         85
  24.2072         90
  24.2257        110
  24.2443        114
  24.2629        113
  24.2815         90
  24.3000        113
  24.3186        102
  24.3372        117
  24.3558        124
  24.3744        109
  24.3929        110
  24.4115         98
  24.4301         97
  24.4487        109
  24.4672         98
  24.4858        105
  24.5044        104
  24.5230        105
  24.5415        122
  24.5601         92
  24.5787        102
  24.5973         88
  24.6158        104
  24.6344        103
  24.6530        104
  24.6716         93
  24.6901         94
  24.7087         93
  24.7273        106
  24.7459        113
  24.7644        104
  24.7830         99
  24.8016         93
  24.8202        114
  24.8387        105
  24.8573        107
  24.8759         84
  24.8945         87
  24.9130         97
  24.9316         88
  24.9502        112
  24.9688         94
  24.9873        105
  25.0059         90
  25.0245        102
  25.0431        100
  25.0616        102
  25.0802        105
  25.0988         95
  25.1174         92
  25.1360        115
  25.1545        108
  25.1731        103
  25.1917        101
  25.2103         93
  25.2288         92
  25.2474         95
  25.2660         91
  25.2846         94
  25.3031         96
  25.3217         94
  25.3403         98
  25.3589        100
  25.3774        116
  25.3960         86
  25.4146        103
  25.4332        100
  25.4517         92
  25.4703         92
  25.4889         91
  25.5075         98
  25.5260         93
  25.5446        108
  25.5632        101
  25.5818         95
  25.6003        109
  25.6189         92
  25.6375         88
  25.6561         97
  25.6746        102
  25.6932        102
  25.7118        113
  25.7304         88
  25.7489        104
  25.7675        100
  25.7861         92
  25.8047        116
  25.8232         78
  25.8418         96
  25.8604         93
  25.8790        107
  25.8976         87
  25.9161        100
  25.9347         97
  25.9533         96
  25.9719         99
  25.9904         90
  26.0090         90
  26.0276         93
  26.0462         88
  26.0647         76
  26.0833         88
  26.1019        109
  26.1205        100
  26.1390        104
  26.1576         97
  26.1762         91
  26.1948        109
  26.2133         86
  26.2319         93
  26.2505        105
  26.2691         96
  26.2876         95
  26.3062        109
  26.3248        105
  26.3434         99
  26.3619        108
  26.3805         88
  26.3991         87
  26.4177        104
  26.4362         85
  26.4548        101
  26.4734         95
  26.4920         85
  26.5105         89
  26.5291        106
  26.5477         95
  26.5663         89
  26.5848        104
  26.6034         95
  26.6220         88
  26.6406         95
  26.6591         88
  26.6777         97
  26.6963        111
  26.7149         90
  26.7335        116
  26.7520         88
  26.7706         97
  26.7892        107
  26.8078         84
  26.8263        101
  26.8449         63
  26.8635        102
  26.8821         99
  26.9006        114
  26.9192         84
  26.9378         90
  26.9564        101
  26.9749         81
  26.9935         87
  27.0121         78
  27.0307        102
  27.0492         85
  27.0678         90
  27.0864        101
  27.1050         91
  27.1235         82
  27.1421        101
  27.1607        108
  27.1793        101
  27.1978        136
  27.2164        116
  27.2350        111
  27.2536        141
  27.2721        111
  27.2907        108
  27.3093         95
  27.3279         89
  27.3464         91
  27.3650         96
  27.3836         96
  27.4022         91
  27.4207         99
  27.4393         99
  27.4579        105
  27.4765        100
  27.4951         93
  27.5136        100
  27.5322         95
  27.5508         99
  27.5694        109
  27.5879         96
  27.6065         92
  27.6251         94
  27.6437         93
  27.6622         75
  27.6808         88
  27.6994        102
  27.7180         90
  27.7365         83
  27.7551         87
  27.7737         83
  27.7923         77
  27.8108         90
  27.8294         89
  27.8480         90
  27.8666         77
  27.8851         93
  27.9037         81
  27.9223         97
  27.9409         92
  27.9594         85
  27.9780         90
  27.9966         88
  28.0152         86
  28.0337         98
  28.0523         87
  28.0709         98
  28.0895         87
  28.1080         95
  28.1266         79
  28.1452         90
  28.1638         95
  28.1823         83
  28.2009         86
  28.2195        104
  28.2381         91
  28.2567        101
  28.2752        107
  28.2938         89
  28.3124         88
  28.3310         97
  28.3495         83
  28.3681         75
  28.3867         80
  28.4053         81
  28.4238         85
  28.4424         81
  28.4610         73
  28.4796         79
  28.4981         73
  28.5167         80
  28.5353         85
  28.5539         77
  28.5724         74
  28.5910         76
  28.6096         74
  28.6282         94
  28.6467         86
  28.6653         94
  28.6839         83
  28.7025         78
  28.7210         65
  28.7396         77
  28.7582         58
  28.7768         78
  28.7953         96
  28.8139         88
  28.8325         87
  28.8511         74
  28.8696         76
  28.8882         88
  28.9068         84
  28.9254         96
  28.9439         85
  28.9625         76
  28.9811         88
  28.9997         85
  29.0183         82
  29.0368         80
  29.0554         79
  29.0740         76
  29.0926         77
  29.1111         70
  29.1297         73
  29.1483         72
  29.1669         76
  29.1854         90
  29.2040         98
  29.2226         77
  29.2412         88
  29.2597         88
  29.2783         70
  29.2969         78
  29.3155         71
  29.3340         76
  29.3526         95
  29.3712         78
  29.3898         77
  29.4083         70
  29.4269         77
  29.4455         72
  29.4641         83
  29.4826         97
  29.5012         66
  29.5198         78
  29.5384         78
  29.5569         76
  29.5755         91
  29.5941         87
  29.6127         69
  29.6312         77
  29.6498         85
  29.6684         69
  29.6870         80
  29.7055         83
  29.7241         83
  29.7427         78
  29.7613         70
  29.7799         78
  29.7984         88
  29.8170         90
  29.8356         86
  29.8542         93
  29.8727         86
  29.8913         68
  29.9099         68
  29.9285         84
  29.9470         86
  29.9656         77
  29.9842         71
  30.0028         76
  30.0213         72
  30.0399         73
  30.0585         71
  30.0771         75
  30.0956         83
  30.1142         71
  30.1328         88
  30.1514         79
  30.1699         88
  30.1885         74
  30.2071         71
  30.2257         80
  30.2442         91
  30.2628         73
  30.2814         66
  30.3000        102
  30.3185        105
  30.3371        110
  30.3557        120
  30.3743        136
  30.3928        145
  30.4114        143
  30.4300        109
  30.4486        119
  30.4671        119
  30.4857        103
  30.5043         92
  30.5229         89
  30.5415         75
  30.5600         80
  30.5786         91
  30.5972         84
  30.6158         79
  30.6343         77
  30.6529         71
  30.6715         88
  30.6901         87
  30.7086         80
  30.7272         61
  30.7458         60
  30.7644         71
  30.7829         78
  30.8015         82
  30.8201         70
  30.8387         67
  30.8572         77
  30.8758         64
  30.8944         67
  30.9130         72
  30.9315         59
  30.9501         76
  30.9687         79
  30.9873         86
  31.0058         56
  31.0244         87
  31.0430         65
  31.0616         82
  31.0801         83
  31.0987         66
  31.1173         64
  31.1359         72
  31.1544         86
  31.1730         67
  31.1916         57
  31.2102         72
  31.2287         74
  31.2473         65
  31.2659         64
  31.2845         68
  31.3030         70
  31.3216         62
  31.3402         51
  31.3588         78
  31.3774         59
  31.3959         66
  31.4145         88
  31.4331         72
  31.4517         76
  31.4702         69
  31.4888         69
  31.5074         59
  31.5260         68
  31.5445         51
  31.5631         66
  31.5817         69
  31.6003         64
  31.6188         60
  31.6374         72
  31.6560         69
  31.6746         68
  31.6931         83
  31.7117         62
  31.7303         66
  31.7489         57
  31.7674         54
  31.7860         70
  31.8046         58
  31.8232         59
  31.8417         58
  31.8603         80
  31.8789         59
  31.8975         56
  31.9160         69
  31.9346         63
  31.9532         62
  31.9718         62
  31.9903         58
  32.0089         59
  32.0275         61
  32.0461         79
  32.0646         75
  32.0832         58
  32.1018         84
  32.1204         69
  32.1390         65
  32.1575         68
  32.1761         64
  32.1947         66
  32.2133         52
  32.2318         64
  32.2504         62
  32.2690         72
  32.2876         70
  32.3061         72
  32.3247         69
  32.3433         57
  32.3619         68
  32.3804         62
  32.3990         64
  32.4176         85
  32.4362         87
  32.4547         76
  32.4733         80
  32.4919         87
  32.5105         83
  32.5290         70
  32.5476         70
  32.5662         72
  32.5848         72
  32.6033         54
  32.6219         73
  32.6405         73
  32.6591         61
  32.6776         69
  32.6962         62
  32.7148         60
  32.7334         66
  32.7519         44
  32.7705         61
  32.7891         56
  32.8077         50
  32.8262         64
  32.8448         61
  32.8634         61
  32.8820         62
  32.9006         71
  32.9191         69
  32.9377         51
  32.9563         63
  32.9749         71
  32.9934         56
  33.0120         67
  33.0306         61
  33.0492         53
  33.0677         64
  33.0863         67
  33.1049         72
  33.1235         64
  33.1420         53
  33.1606         51
  33.1792         82
  33.1978         59
  33.2163         58
  33.2349         72
  33.2535         72
  33.2721         62
  33.2906         58
  33.3092         54
  33.3278         52
  33.3464         59
  33.3649         60
  33.3835         58
  33.4021         66
  33.4207         53
  33.4392         51
  33.4578         63
  33.4764         52
  33.4950         69
  33.5135         55
  33.5321         58
  33.5507         53
  33.5693         52
  33.5878         53
  33.6064         53
  33.6250         53
  33.6436         55
  33.6622         55
  33.6807         57
  33.6993         56
  33.7179         49
  33.7365         66
  33.7550         55
  33.7736         61
  33.7922         57
  33.8108         67
  33.8293         59
  33.8479         59
  33.8665         72
  33.8851         71
  33.9036         51
  33.9222         63
  33.9408         61
  33.9594         52
  33.9779         53
  33.9965         50
  34.0151         61
  34.0337         46
  34.0522         59
  34.0708         51
  34.0894         57
  34.1080         45
  34.1265         66
  34.1451         63
  34.1637         47
  34.1823         61
  34.2008         45
  34.2194         49
  34.2380         53
  34.2566         45
  34.2751         50
  34.2937         63
  34.3123         45
  34.3309         44
  34.3494         58
  34.3680         55
  34.3866         60
  34.4052         54
  34.4238         50
  34.4423         53
  34.4609         63
  34.4795         56
  34.4981         63
  34.5166         61
  34.5352         70
  34.5538         63
  34.5724         43
  34.5909         65
  34.6095         67
  34.6281         63
  34.6467         63
  34.6652         53
  34.6838         63
  34.7024         65
  34.7210         72
  34.7395         68
  34.7581         84
  34.7767         89
  34.7953         76
  34.8138         83
  34.8324         74
  34.8510         69
  34.8696         70
  34.8881         64
  34.9067         51
  34.9253         52
  34.9439         66
  34.9624         51
  34.9810         62
  34.9996         58
  35.0182         64
  35.0367         47
  35.0553         45
  35.0739         51
  35.0925         51
  35.1110         38
  35.1296         56
  35.1482         40
  35.1668         72
  35.1854         57
  35.2039         52
  35.2225         53
  35.2411         58
  35.2597         51
  35.2782         42
  35.2968         56
  35.3154         51
  35.3340         57
  35.3525         71
  35.3711         56
  35.3897         46
  35.4083         49
  35.4268         39
  35.4454         56
  35.4640         55
  35.4826         51
  35.5011         61
  35.5197         46
  35.5383         51
  35.5569         54
  35.5754         42
  35.5940         59
  35.6126         44
  35.6312         51
  35.6497         47
  35.6683         47
  35.6869         53
  35.7055         54
  35.7240         44
  35.7426         39
  35.7612         47
  35.7798         49
  35.7983         48
  35.8169         48
  35.8355         50
  35.8541         50
  35.8726         45
  35.8912         61
  35.9098         43
  35.9284         47
  35.9469         50
  35.9655         52
  35.9841         53
  36.0027         50
  36.0213         55
  36.0398         46
  36.0584         59
  36.0770         43
  36.0956         50
  36.1141         51
  36.1327         52
  36.1513         41
  36.1699         45
  36.1884         48
  36.2070         39
  36.2256         46
  36.2442         43
  36.2627         46
  36.2813         55
  36.2999         48
  36.3185         71
  36.3370         44
  36.3556         45
  36.3742         52
  36.3928         51
  36.4113         40
  36.4299         48
  36.4485         50
  36.4671         53
  36.4856         54
  36.5042         49
  36.5228         48
  36.5414         41
  36.5599         53
  36.5785         52
  36.5971         39
  36.6157         36
  36.6342         54
  36.6528         41
  36.6714         58
  36.6900         50
  36.7085         43
  36.7271         37
  36.7457         43
  36.7643         44
  36.7829         56
  36.8014         43
  36.8200         47
  36.8386         49
  36.8572         67
  36.8757         39
  36.8943         45
  36.9129         43
  36.9315         51
  36.9500         45
  36.9686         42
  36.9872         44
  37.0058         63
  37.0243         33
  37.0429         50
  37.0615         37
  37.0801         42
  37.0986         51
  37.1172         57
  37.1358         43
  37.1544         55
  37.1729         53
  37.1915         49
  37.2101         58
  37.2287         54
  37.2472         41
  37.2658         46
  37.2844         42
  37.3030         32
  37.3215         33
  37.3401         39
  37.3587         43
  37.3773         47
  37.3958         56
  37.4144         55
  37.4330         72
  37.4516         86
  37.4701         57
  37.4887         54
  37.5073         60
  37.5259         65
  37.5445         60
  37.5630         51
  37.5816         51
  37.6002         42
  37.6188         44
  37.6373         39
  37.6559         45
  37.6745         46
  37.6931         50
  37.7116         29
  37.7302         39
  37.7488         44
  37.7674         42
  37.7859         43
  37.8045         52
  37.8231         42
  37.8417         46
  37.8602         39
  37.8788         46
  37.8974         48
  37.9160         55
  37.9345         40
  37.9531         36
  37.9717         51
  37.9903         40
  38.0088         36
  38.0274         35
  38.0460         40
  38.0646         31
  38.0831         58
  38.1017         48
  38.1203         39
  38.1389         48
  38.1574         43
  38.1760         46
  38.1946         46
  38.2132         41
  38.2317         38
  38.2503         47
  38.2689         47
  38.2875         43
  38.3061         45
  38.3246         50
  38.3432         41
  38.3618         48
  38.3804         60
  38.3989         45
  38.4175         29
  38.4361         34
  38.4547         32
  38.4732         41
  38.4918         42
  38.5104         53
  38.5290         42
  38.5475         37
  38.5661         36
  38.5847         40
  38.6033         44
  38.6218         43
  38.6404         46
  38.6590         39
  38.6776         46
  38.6961         37
  38.7147         49
  38.7333         52
  38.7519         38
  38.7704         34
  38.7890         45
  38.8076         37
  38.8262         34
  38.8447         40
  38.8633         36
  38.8819         42
  38.9005         39
  38.9190         37
  38.9376         42
  38.9562         53
  38.9748         42
  38.9933         45
  39.0119         43
  39.0305         47
  39.0491         41
  39.0677         35
  39.0862         51
  39.1048         37
  39.1234         41
  39.1420         34
  39.1605         44
  39.1791         46
  39.1977         37
  39.2163         42
  39.2348         42
  39.2534         51
  39.2720         39
  39.2906         47
  39.3091         39
  39.3277         37
  39.3463         44
  39.3649         30
  39.3834         34
  39.4020         36
  39.4206         45
  39.4392         30
  39.4577         42
  39.4763         46
  39.4949         27
  39.5135         32
  39.5320         45
  39.5506         26
  39.5692         39
  39.5878         46
  39.6063         48
  39.6249         39
  39.6435         33
  39.6621         40
  39.6806         51
  39.6992         39
  39.7178         46
  39.7364         44
  39.7549         32
  39.7735         45
  39.7921         35
  39.8107         43
  39.8293         31
  39.8478         41
  39.8664         29
  39.8850         43
  39.9036         32
  39.9221         40
  39.9407         31
  39.9593         44
  39.9779         49
  39.9964         39
  40.0150         51
  40.0336         35
  40.0522         40
  40.0707         25
  40.0893         44
  40.1079         41
  40.1265         45
  40.1450         35
  40.1636         44
  40.1822         44
  40.2008         43
  40.2193         36
  40.2379         42
  40.2565         42
  40.2751         44
  40.2936         34
  40.3122         40
  40.3308         43
  40.3494         30
  40.3679         35
  40.3865         38
  40.4051         32
  40.4237         35
  40.4422         36
  40.4608         44
  40.4794         41
  40.4980         37
  40.5165         33
  40.5351         33
  40.5537         40
  40.5723         39
  40.5908         46
  40.6094         35
  40.6280         39
  40.6466         35
  40.6652         37
  40.6837         33
  40.7023         29
  40.7209         44
  40.7395         41
  40.7580         30
  40.7766         42
  40.7952         28
  40.8138         35
  40.8323         36
  40.8509         41
  40.8695         45
  40.8881         36
  40.9066         51
  40.9252         33
  40.9438         37
  40.9624         46
  40.9809         39
  40.9995         36
  41.0181         44
  41.0367         57
  41.0552         39
  41.0738         43
  41.0924         43
  41.1110         47
  41.1295         38
  41.1481         40
  41.1667         48
  41.1853         41
  41.2038         38
  41.2224         45
  41.2410         29
  41.2596         43
  41.2781         30
  41.2967         36
  41.3153         45
  41.3339         40
  41.3524         45
  41.3710         37
  41.3896         37
  41.4082         39
  41.4268         28
  41.4453         28
  41.4639         42
  41.4825         51
  41.5011         40
  41.5196         42
  41.5382         46
  41.5568         41
  41.5754         45
  41.5939         29
  41.6125         44
  41.6311         34
  41.6497         34
  41.6682         45
  41.6868         27
  41.7054         41
  41.7240         41
  41.7425         29
  41.7611         38
  41.7797         39
  41.7983         33
  41.8168         43
  41.8354         35
  41.8540         43
  41.8726         39
  41.8911         42
  41.9097         33
  41.9283         41
  41.9469         43
  41.9654         40
  41.9840         38
  42.0026         33
  42.0212         35
  42.0397         36
  42.0583         26
  42.0769         39
  42.0955         35
  42.1140         24
  42.1326         36
  42.1512         36
  42.1698         26
  42.1884         33
  42.2069         40
  42.2255         37
  42.2441         31
  42.2627         37
  42.2812         36
  42.2998         36
  42.3184         31
  42.3370         44
  42.3555         43
  42.3741         35
  42.3927         35
  42.4113         46
  42.4298         30
  42.4484         40
  42.4670         29
  42.4856         30
  42.5041         34
  42.5227         42
  42.5413         33
  42.5599         29
  42.5784         38
  42.5970         37
  42.6156         37
  42.6342         36
  42.6527         42
  42.6713         36
  42.6899         36
  42.7085         42
  42.7270         42
  42.7456         39
  42.7642         35
  42.7828         40
  42.8013         42
  42.8199         32
  42.8385         35
  42.8571         29
  42.8756         27
  42.8942         45
  42.9128         38
  42.9314         20
  42.9500         33
  42.9685         41
  42.9871         38
  43.0057         30
  43.0243         42
  43.0428         28
  43.0614         36
  43.0800         32
  43.0986         32
  43.1171         45
  43.1357         36
  43.1543         29
  43.1729         34
  43.1914         36
  43.2100         47
  43.2286         41
  43.2472         37
  43.2657         46
  43.2843         42
  43.3029         44
  43.3215         43
  43.3400         36
  43.3586         47
  43.3772         45
  43.3958         44
  43.4143         31
  43.4329         33
  43.4515         33
  43.4701         52
  43.4886         55
  43.5072         57
  43.5258         75
  43.5444         47
  43.5629         51
  43.5815         50
  43.6001         35
  43.6187         55
  43.6372         44
  43.6558         42
  43.6744         43
  43.6930         38
  43.7116         38
  43.7301         31
  43.7487         35
  43.7673         33
  43.7859         36
  43.8044         29
  43.8230         41
  43.8416         44
  43.8602         43
  43.8787         40
  43.8973         33
  43.9159         29
  43.9345         30
  43.9530         31
  43.9716         23
  43.9902         34
  44.0088         32
  44.0273         41
  44.0459         32
  44.0645         33
  44.0831         45
  44.1016         32
  44.1202         40
  44.1388         38
  44.1574         46
  44.1759         51
  44.1945         38
  44.2131         28
  44.2317         40
  44.2502         47
  44.2688         43
  44.2874         31
  44.3060         32
  44.3245         35
  44.3431         48
  44.3617         47
  44.3803         40
  44.3988         31
  44.4174         34
  44.4360         31
  44.4546         36
  44.4732         35
  44.4917         38
  44.5103         40
  44.5289         44
  44.5475         39
  44.5660         35
  44.5846         35
  44.6032         50
  44.6218         34
  44.6403         41
  44.6589         40
  44.6775         49
  44.6961         38
  44.7146         36
  44.7332         34
  44.7518         35
  44.7704         34
  44.7889         42
  44.8075         33
  44.8261         37
  44.8447         45
  44.8632         30
  44.8818         41
  44.9004         25
  44.9190         38
  44.9375         56
  44.9561         29
  44.9747         36
  44.9933         38
  45.0118         32
  45.0304         35
  45.0490         28
  45.0676         35
  45.0861         37
  45.1047         36
  45.1233         41
  45.1419         29
  45.1604         41
  45.1790         33
  45.1976         33
  45.2162         24
  45.2347         54
  45.2533         41
  45.2719         43
  45.2905         35
  45.3091         32
  45.3276         35
  45.3462         32
  45.3648         35
  45.3834         26
  45.4019         34
  45.4205         41
  45.4391         30
  45.4577         40
  45.4762         47
  45.4948         31
  45.5134         31
  45.5320         41
  45.5505         38
  45.5691         27
  45.5877         33
  45.6063         31
  45.6248         28
  45.6434         29
  45.6620         20
  45.6806         37
  45.6991         32
  45.7177         45
  45.7363         41
  45.7549         28
  45.7734         33
  45.7920         29
  45.8106         38
  45.8292         26
  45.8477         37
  45.8663         37
  45.8849         37
  45.9035         37
  45.9220         33
  45.9406         32
  45.9592         27
  45.9778         37
  45.9963         37
  46.0149         41
  46.0335         32
  46.0521         25
  46.0707         32
  46.0892         34
  46.1078         39
  46.1264         34
  46.1450         28
  46.1635         34
  46.1821         35
  46.2007         40
  46.2193         29
  46.2378         29
  46.2564         30
  46.2750         33
  46.2936         29
  46.3121         30
  46.3307         38
  46.3493         33
  46.3679         29
  46.3864         38
  46.4050         22
  46.4236         28
  46.4422         35
  46.4607         36
  46.4793         31
  46.4979         15
  46.5165         53
  46.5350         39
  46.5536         47
  46.5722         32
  46.5908         34
  46.6093         34
  46.6279         30
  46.6465         29
  46.6651         29
  46.6836         32
  46.7022         25
  46.7208         39
  46.7394         37
  46.7579         34
  46.7765         23
  46.7951         38
  46.8137         35
  46.8323         31
  46.8508         24
  46.8694         30
  46.8880         31
  46.9066         24
  46.9251         37
  46.9437         29
  46.9623         28
  46.9809         26
  46.9994         36
  47.0180         46
  47.0366         30
  47.0552         28
  47.0737         36
  47.0923         27
  47.1109         27
  47.1295         27
  47.1480         25
  47.1666         26
  47.1852         35
  47.2038         37
  47.2223         37
  47.2409         16
  47.2595         30
  47.2781         30
  47.2966         35
  47.3152         24
  47.3338         32
  47.3524         36
  47.3709         35
  47.3895         27
  47.4081         36
  47.4267         38
  47.4452         34
  47.4638         23
  47.4824         36
  47.5010         22
  47.5195         36
  47.5381         27
  47.5567         26
  47.5753         23
  47.5939         25
  47.6124         25
  47.6310         37
  47.6496         37
  47.6682         39
  47.6867         22
  47.7053         37
  47.7239         24
  47.7425         36
  47.7610         26
  47.7796         24
  47.7982         38
  47.8168         27
  47.8353         30
  47.8539         23
  47.8725         25
  47.8911         32
  47.9096         30
  47.9282         34
  47.9468         27
  47.9654         34
  47.9839         27
  48.0025         42
  48.0211         37
  48.0397         28
  48.0582         30
  48.0768         40
  48.0954         33
  48.1140         42
  48.1325         37
  48.1511         30
  48.1697         32
  48.1883         39
  48.2068         35
  48.2254         37
  48.2440         21
  48.2626         27
  48.2811         22
  48.2997         34
  48.3183         29
  48.3369         29
  48.3555         33
  48.3740         33
  48.3926         32
  48.4112         18
  48.4298         34
  48.4483         30
  48.4669         39
  48.4855         35
  48.5041         34
  48.5226         25
  48.5412         42
  48.5598         30
  48.5784         33
  48.5969         35
  48.6155         36
  48.6341         38
  48.6527         19
  48.6712         36
  48.6898         26
  48.7084         28
  48.7270         38
  48.7455         21
  48.7641         26
  48.7827         41
  48.8013         22
  48.8198         29
  48.8384         38
  48.8570         27
  48.8756         35
  48.8941         48
  48.9127         33
  48.9313         39
  48.9499         56
  48.9684         63
  48.9870         56
  49.0056         51
  49.0242         32
  49.0427         36
  49.0613         37
  49.0799         31
  49.0985         37
  49.1171         45
  49.1356         40
  49.1542         38
  49.1728         33
  49.1914         48
  49.2099         34
  49.2285         28
  49.2471         29
  49.2657         24
  49.2842         29
  49.3028         19
  49.3214         37
  49.3400         26
  49.3585         23
  49.3771         25
  49.3957         31
  49.4143         38
  49.4328         34
  49.4514         22
  49.4700         34
  49.4886         26
  49.5071         41
  49.5257         33
  49.5443         35
  49.5629         27
  49.5814         35
  49.6000         24
  49.6186         21
  49.6372         33
  49.6557         31
  49.6743         28
  49.6929         32
  49.7115         20
  49.7300         31
  49.7486         30
  49.7672         26
  49.7858         27
  49.8043         34
  49.8229         25
  49.8415         34
  49.8601         38
  49.8786         38
  49.8972         35
  49.9158         29
  49.9344         41
  49.9530         34
  49.9715         41
  49.9901         38
  50.0087         25
  50.0273         27
  50.0458         35
  50.0644         28
  50.0830         24
  50.1016         14
  50.1201         21
  50.1387         34
  50.1573         41
  50.1759         25
  50.1944         20
  50.2130         35
  50.2316         29
  50.2502         36
  50.2687         20
  50.2873         20
  50.3059         30
  50.3245         35
  50.3430         32
  50.3616         40
  50.3802         36
  50.3988         31
  50.4173         33
  50.4359         35
  50.4545         31
  50.4731         28
  50.4916         29
  50.5102         28
  50.5288         25
  50.5474         26
  50.5659         27
  50.5845         43
  50.6031         22
  50.6217         34
  50.6402         22
  50.6588         21
  50.6774         36
  50.6960         26
  50.7146         26
  50.7331         27
  50.7517         40
  50.7703         38
  50.7889         27
  50.8074         33
  50.8260         38
  50.8446         30
  50.8632         33
  50.8817         20
  50.9003         33
  50.9189         19
  50.9375         27
  50.9560         33
  50.9746         31
  50.9932         25
  51.0118         20
  51.0303         37
  51.0489         25
  51.0675         24
  51.0861         28
  51.1046         28
  51.1232         31
  51.1418         26
  51.1604         25
  51.1789         25
  51.1975         32
  51.2161         38
  51.2347         27
  51.2532         33
  51.2718         28
  51.2904         26
  51.3090         33
  51.3275         28
  51.3461         34
  51.3647         41
  51.3833         30
  51.4018         37
  51.4204         39
  51.4390         30
  51.4576         31
  51.4762         35
  51.4947         27
  51.5133         33
  51.5319         32
  51.5505         19
  51.5690         28
  51.5876         44
  51.6062         34
  51.6248         38
  51.6433         31
  51.6619         18
  51.6805         22
  51.6991         33
  51.7176         36
  51.7362         35
  51.7548         38
  51.7734         36
  51.7919         31
  51.8105         34
  51.8291         43
  51.8477         30
  51.8662         34
  51.8848         26
  51.9034         31
  51.9220         23
  51.9405         35
  51.9591         37
  51.9777         31
  51.9963         29
  52.0148         35
  52.0334         29
  52.0520         35
  52.0706         34
  52.0891         31
  52.1077         37
  52.1263         29
  52.1449         33
  52.1634         28
  52.1820         35
  52.2006         25
  52.2192         30
  52.2378         23
  52.2563         25
  52.2749         35
  52.2935         24
  52.3121         33
  52.3306         21
  52.3492         36
  52.3678         27
  52.3864         17
  52.4049         28
  52.4235         32
  52.4421         23
  52.4607         26
  52.4792         26
  52.4978         30
  52.5164         25
  52.5350         33
  52.5535         34
  52.5721         26
  52.5907         31
  52.6093         29
  52.6278         32
  52.6464         26
  52.6650         26
  52.6836         29
  52.7021         26
  52.7207         37
  52.7393         24
  52.7579         37
  52.7764         28
  52.7950         27
  52.8136         34
  52.8322         25
  52.8507         35
  52.8693         18
  52.8879         18
  52.9065         35
  52.9250         24
  52.9436         25
  52.9622         37
  52.9808         22
  52.9994         44
  53.0179         36
  53.0365         27
  53.0551         26
  53.0737         28
  53.0922         29
  53.1108         36
  53.1294         21
  53.1480         38
  53.1665         28
  53.1851         44
  53.2037         31
  53.2223         26
  53.2408         25
  53.2594         32
  53.2780         36
  53.2966         38
  53.3151         28
  53.3337         28
  53.3523         29
  53.3709         25
  53.3894         35
  53.4080         26
  53.4266         28
  53.4452         31
  53.4637         33
  53.4823         20
  53.5009         30
  53.5195         36
  53.5380         18
  53.5566         32
  53.5752         24
  53.5938         35
  53.6123         27
  53.6309         27
  53.6495         34
  53.6681         35
  53.6866         24
  53.7052         33
  53.7238         27
  53.7424         23
  53.7610         38
  53.7795         29
  53.7981         28
  53.8167         23
  53.8353         26
  53.8538         25
  53.8724         27
  53.8910         28
  53.9096         28
  53.9281         32
  53.9467         29
  53.9653         43
  53.9839         48
  54.0024         40
  54.0210         38
  54.0396         40
  54.0582         39
  54.0767         25
  54.0953         29
  54.1139         32
  54.1325         39
  54.1510         29
  54.1696         23
  54.1882         31
  54.2068         40
  54.2253         27
  54.2439         32
  54.2625         24
  54.2811         25
  54.2996         28
  54.3182         32
  54.3368         32
  54.3554         21
  54.3739         33
  54.3925         16
  54.4111         30
  54.4297         29
  54.4482         22
  54.4668         24
  54.4854         19
  54.5040         33
  54.5225         29
  54.5411         25
  54.5597         25
  54.5783         25
  54.5969         34
  54.6154         32
  54.6340         32
  54.6526         28
  54.6712         23
  54.6897         20
  54.7083         30
  54.7269         30
  54.7455         27
  54.7640         31
  54.7826         25
  54.8012         35
  54.8198         28
  54.8383         23
  54.8569         36
  54.8755         24
  54.8941         20
  54.9126         18
  54.9312         26
  54.9498         27
  54.9684         29
  54.9869         28
  55.0055         27
  55.0241         28
  55.0427         32
  55.0612         25
  55.0798         34
  55.0984         28
  55.1170         24
  55.1355         35
  55.1541         30
  55.1727         22
  55.1913         21
  55.2098         30
  55.2284         27
  55.2470         21
  55.2656         23
  55.2841         31
  55.3027         29
  55.3213         26
  55.3399         23
  55.3585         25
  55.3770         29
  55.3956         29
  55.4142         20
  55.4328         23
  55.4513         30
  55.4699         28
  55.4885         25
  55.5071         23
  55.5256         25
  55.5442         27
  55.5628         24
  55.5814         22
  55.5999         26
  55.6185         34
  55.6371         19
  55.6557         37
  55.6742         31
  55.6928         30
  55.7114         26
  55.7300         29
  55.7485         38
  55.7671         27
  55.7857         22
  55.8043         23
  55.8228         26
  55.8414         19
  55.8600         25
  55.8786         35
  55.8971         33
  55.9157         33
  55.9343         28
  55.9529         23
  55.9714         26
  55.9900         25
  56.0086         38
  56.0272         27
  56.0457         41
  56.0643         19
  56.0829         29
  56.1015         28
  56.1201         32
  56.1386         29
  56.1572         27
  56.1758         21
  56.1944         35
  56.2129         27
  56.2315         29
  56.2501         32
  56.2687         22
  56.2872         41
  56.3058         29
  56.3244         29
  56.3430         31
  56.3615         36
  56.3801         26
  56.3987         27
  56.4173         24
  56.4358         38
  56.4544         33
  56.4730         31
  56.4916         27
  56.5101         46
  56.5287         28
  56.5473         27
  56.5659         28
  56.5844         22
  56.6030         26
  56.6216         28
  56.6402         38
  56.6587         25
  56.6773         31
  56.6959         32
  56.7145         27
  56.7330         22
  56.7516         26
  56.7702         24
  56.7888         32
  56.8073         40
  56.8259         35
  56.8445         36
  56.8631         21
  56.8817         30
  56.9002         32
  56.9188         32
  56.9374         26
  56.9560         31
  56.9745         19
  56.9931         25
  57.0117         23
  57.0303         25
  57.0488         30
  57.0674         25
  57.0860         31
  57.1046         30
  57.1231         27
  57.1417         24
  57.1603         39
  57.1789         19
  57.1974         28
  57.2160         32
  57.2346         32
  57.2532         31
  57.2717         26
  57.2903         24
  57.3089         18
  57.3275         32
  57.3460         26
  57.3646         29
  57.3832         29
  57.4018         33
  57.4203         27
  57.4389         30
  57.4575         19
  57.4761         25
  57.4946         27
  57.5132         19
  57.5318         30
  57.5504         36
  57.5689         33
  57.5875         21
  57.6061         25
  57.6247         16
  57.6433         25
  57.6618         36
  57.6804         37
  57.6990         24
  57.7176         26
  57.7361         28
  57.7547         26
  57.7733         35
  57.7919         41
  57.8104         20
  57.8290         27
  57.8476         32
  57.8662         26
  57.8847         23
  57.9033         22
  57.9219         26
  57.9405         24
  57.9590         24
  57.9776         29
  57.9962         31
  58.0148         28
  58.0333         24
  58.0519         23
  58.0705         26
  58.0891         23
  58.1076         21
  58.1262         20
  58.1448         35
  58.1634         26
  58.1819         32
  58.2005         29
  58.2191         28
  58.2377         31
  58.2562         27
  58.2748         37
  58.2934         19
  58.3120         25
  58.3305         35
  58.3491         30
  58.3677         32
  58.3863         34
  58.4049         23
  58.4234         31
  58.4420         21
  58.4606         20
  58.4792         25
  58.4977         26
  58.5163         32
  58.5349         25
  58.5535         24
  58.5720         28
  58.5906         24
  58.6092         24
  58.6278         34
  58.6463         35
  58.6649         26
  58.6835         19
  58.7021         39
  58.7206         30
  58.7392         21
  58.7578         28
  58.7764         33
  58.7949         37
  58.8135         21
  58.8321         37
  58.8507         27
  58.8692         32
  58.8878         25
  58.9064         24
  58.9250         24
  58.9435         29
  58.9621         33
  58.9807         29
  58.9993         27
  59.0178         34
  59.0364         22
  59.0550         25
  59.0736         33
  59.0921         32
  59.1107         26
  59.1293         23
  59.1479         24
  59.1664         29
  59.1850         21
  59.2036         17
  59.2222         25
  59.2408         24
  59.2593         29
  59.2779         32
  59.2965         28
  59.3151         25
  59.3336         18
  59.3522         32
  59.3708         22
  59.3894         33
  59.4079         32
  59.4265         25
  59.4451         26
  59.4637         28
  59.4822         21
  59.5008         31
  59.5194         27
  59.5380         29
  59.5565         28
  59.5751         22
  59.5937         33
  59.6123         27
  59.6308         26
  59.6494         30
  59.6680         18
  59.6866         15
  59.7051         25
  59.7237         23
  59.7423         34
  59.7609         23
  59.7794         21
  59.7980         21
  59.8166         24
  59.8352         34
  59.8537         30
  59.8723         34
  59.8909         38
  59.9095         28
  59.9280         37
  59.9466         32
  59.9652         28
  59.9838         26
  60.0024         29
