; (content of file Y:\Sam\Apurva-07-20-2022\puck4\ML_20220718_45_SJD_4_LaB6-2min.raw)
_FILEVERSION = 3
_SAMPLE = ML_20220718_45_SJD_4_LaB6-2min
_+SAMPLE = 
_SITE = USA
_USER = Administrator
_GONIOMETER_CODE = 20
; Goniometer : D8 theta/2theta, stage : Unknown
_ATTACHMENTS_CODE = 0
_GONIOMETER_RADIUS = 200.5
_FIXED_DIVSLIT = 0.6
_FIXED_SAMPLESLIT = 0
_SOLLER_SLITS = 2
_FIXED_DETSLIT = 9.55
_MONOCHROMATOR = 0
; Incident beam monochromator : None
_SOLLER_SLITS_2 = N
_THIN_FILM = N
_BETA_FILTER = Y
_FIXED_ANTISLIT = 5.89
_ANALYZER_CODE = 0
; Received beam analyzer : None
_DATEMEASURED = "26-Jul-2022 12:15:41"
_WL_UNIT = A
_WL1 = 1.5406
_WL2 = 1.54439
_WL3 = 1.39222
_WLRATIO = 0.5
_ANODE = Cu
_V4_INF_CREATOR = XRDWizard
_V4_INF_CREATOR_VERSION = V2.9.0.22
_V4_INF_WIZARD_VERSION = V2.9.0.22
_V4_INF_WIZARD_ADDINS = V2.9.0.22
_V4_INF_WIZARD_DOCTYPE = XRD
_V4_INF_OSUSER = McQueenLab
_V4_INF_USER = Administrator
_V4_INF_SITE = USA
_V4_INF_SAMPLEID = ML_20220718_45_SJD_4_LaB6-2min

; Data for range 1
_DRIVE = COUPLED
_STEPTIME = 5.64
_STEPSIZE = 0.0185756
_STEPMODE = C
_START = 5
_THETA = 2.5
_2THETA = 5
_KHI = 0
_PHI = 0
_X = 0
_Y = 0
_Z = 0
_DETECTOR = 5
; Detector type : Unknown
_DETECTORSLIT = unkn
_AUX1 = 0
_AUX2 = 0
_AUX3 = 0
_TIMESTARTED = 15
_TEMP_RATE = -1
_TEMP_DELAY = -1
_KV = 40
_MA = 40
_RANGE_WL = 1.5406
_3DPLANE = 0
_V4_ADDITIONALDETECTOR = 257
_V4_PSD2THETA = 3.4135
_V4_PSDCHANNEL1 = 0
_V4_PSDAPERTURE = 12.68
_V4_PSDTYPE = 5
_V4_PSDFIXED = 0
_V4_COUNTERS_MASK = 4096
_V4_DRIVES_MASK = 0
_V4_ENCODERS_MASK = 0
_2THETACOUNTS = 1
; 2THETA  PSD
   5.0000        133
   5.0186        116
   5.0372        143
   5.0557        142
   5.0743        122
   5.0929        157
   5.1115        121
   5.1300        138
   5.1486        110
   5.1672        134
   5.1858        135
   5.2043        121
   5.2229        125
   5.2415        143
   5.2601        133
   5.2786        122
   5.2972        112
   5.3158        120
   5.3344        117
   5.3529        113
   5.3715        118
   5.3901        122
   5.4087        100
   5.4272        120
   5.4458        114
   5.4644        109
   5.4830        126
   5.5015        106
   5.5201         90
   5.5387        119
   5.5573         91
   5.5758        110
   5.5944        121
   5.6130        102
   5.6316        102
   5.6501        115
   5.6687        101
   5.6873        105
   5.7059         92
   5.7244        112
   5.7430        107
   5.7616         92
   5.7802         96
   5.7988         98
   5.8173         96
   5.8359        112
   5.8545        101
   5.8731        108
   5.8916        104
   5.9102         94
   5.9288         98
   5.9474         91
   5.9659        104
   5.9845        105
   6.0031         87
   6.0217        100
   6.0402         80
   6.0588         96
   6.0774        109
   6.0960         98
   6.1145        110
   6.1331         90
   6.1517         92
   6.1703         94
   6.1888        111
   6.2074         83
   6.2260         72
   6.2446         86
   6.2631        100
   6.2817         73
   6.3003         92
   6.3189         81
   6.3374         81
   6.3560         92
   6.3746         85
   6.3932         83
   6.4117         80
   6.4303         86
   6.4489        107
   6.4675        107
   6.4860         80
   6.5046         99
   6.5232        103
   6.5418         77
   6.5604         72
   6.5789         83
   6.5975        100
   6.6161         94
   6.6347         79
   6.6532         72
   6.6718         84
   6.6904         92
   6.7090         86
   6.7275         72
   6.7461         69
   6.7647         82
   6.7833         73
   6.8018         73
   6.8204         74
   6.8390         84
   6.8576         78
   6.8761         84
   6.8947         86
   6.9133         90
   6.9319         67
   6.9504        103
   6.9690         97
   6.9876         86
   7.0062         81
   7.0247         70
   7.0433         88
   7.0619         91
   7.0805         80
   7.0990         81
   7.1176         75
   7.1362         81
   7.1548         98
   7.1733         78
   7.1919         83
   7.2105         80
   7.2291         87
   7.2476         76
   7.2662         71
   7.2848         74
   7.3034         69
   7.3220         81
   7.3405         80
   7.3591         88
   7.3777         84
   7.3963         67
   7.4148         58
   7.4334         76
   7.4520         76
   7.4706         80
   7.4891         78
   7.5077         73
   7.5263         76
   7.5449         69
   7.5634         68
   7.5820         67
   7.6006         66
   7.6192         92
   7.6377         92
   7.6563         81
   7.6749         92
   7.6935        103
   7.7120         91
   7.7306         76
   7.7492         76
   7.7678         78
   7.7863         82
   7.8049         78
   7.8235         92
   7.8421        101
   7.8606         92
   7.8792         94
   7.8978         79
   7.9164         86
   7.9349        100
   7.9535         88
   7.9721         90
   7.9907         87
   8.0092         95
   8.0278         82
   8.0464        100
   8.0650         83
   8.0835         92
   8.1021        108
   8.1207         79
   8.1393         82
   8.1579        106
   8.1764         84
   8.1950         80
   8.2136        105
   8.2322        102
   8.2507         97
   8.2693         89
   8.2879        103
   8.3065         97
   8.3250         96
   8.3436         92
   8.3622         82
   8.3808        101
   8.3993         99
   8.4179         93
   8.4365         91
   8.4551         96
   8.4736         90
   8.4922        105
   8.5108        102
   8.5294        110
   8.5479         97
   8.5665         92
   8.5851         96
   8.6037        110
   8.6222         92
   8.6408        112
   8.6594         91
   8.6780        104
   8.6965         90
   8.7151        107
   8.7337        106
   8.7523        114
   8.7708         96
   8.7894         93
   8.8080        100
   8.8266        116
   8.8451        112
   8.8637        115
   8.8823        104
   8.9009         98
   8.9195        101
   8.9380        101
   8.9566         98
   8.9752        120
   8.9938         98
   9.0123        113
   9.0309         99
   9.0495         95
   9.0681        124
   9.0866         92
   9.1052        104
   9.1238         94
   9.1424        113
   9.1609        120
   9.1795        103
   9.1981         87
   9.2167        114
   9.2352        114
   9.2538         96
   9.2724        105
   9.2910         98
   9.3095        135
   9.3281        105
   9.3467        108
   9.3653        107
   9.3838        106
   9.4024        104
   9.4210        126
   9.4396        111
   9.4581        149
   9.4767        100
   9.4953         95
   9.5139         95
   9.5324        121
   9.5510        107
   9.5696        102
   9.5882        112
   9.6067        101
   9.6253        126
   9.6439        105
   9.6625        117
   9.6811         98
   9.6996         96
   9.7182         93
   9.7368        113
   9.7554        112
   9.7739        115
   9.7925        110
   9.8111        116
   9.8297        123
   9.8482        121
   9.8668        123
   9.8854        117
   9.9040        119
   9.9225        113
   9.9411         96
   9.9597        105
   9.9783        125
   9.9968        121
  10.0154        121
  10.0340        104
  10.0526        111
  10.0711        126
  10.0897        116
  10.1083        125
  10.1269        113
  10.1454        132
  10.1640        120
  10.1826        103
  10.2012        109
  10.2197        131
  10.2383        118
  10.2569        127
  10.2755        127
  10.2940        112
  10.3126        105
  10.3312         91
  10.3498        108
  10.3683        123
  10.3869        117
  10.4055        120
  10.4241        127
  10.4427        110
  10.4612        133
  10.4798        126
  10.4984        121
  10.5170        124
  10.5355        123
  10.5541        113
  10.5727        120
  10.5913        124
  10.6098        112
  10.6284        133
  10.6470        113
  10.6656        121
  10.6841        121
  10.7027        124
  10.7213        126
  10.7399        124
  10.7584        137
  10.7770        135
  10.7956        127
  10.8142        125
  10.8327        134
  10.8513        119
  10.8699        127
  10.8885        113
  10.9070        122
  10.9256        133
  10.9442        134
  10.9628        128
  10.9813        107
  10.9999        130
  11.0185        104
  11.0371        128
  11.0556        122
  11.0742        107
  11.0928        105
  11.1114        114
  11.1299        126
  11.1485        114
  11.1671        112
  11.1857        111
  11.2043        124
  11.2228        122
  11.2414        141
  11.2600        102
  11.2786        102
  11.2971        118
  11.3157        124
  11.3343        116
  11.3529         88
  11.3714        101
  11.3900        128
  11.4086        115
  11.4272        133
  11.4457        116
  11.4643        142
  11.4829        119
  11.5015        123
  11.5200        127
  11.5386        114
  11.5572        101
  11.5758        118
  11.5943        126
  11.6129        118
  11.6315        118
  11.6501        122
  11.6686        111
  11.6872        126
  11.7058        115
  11.7244        110
  11.7429        132
  11.7615        117
  11.7801        111
  11.7987        109
  11.8172        115
  11.8358        107
  11.8544        119
  11.8730        111
  11.8915        126
  11.9101        110
  11.9287        117
  11.9473        141
  11.9659         96
  11.9844        118
  12.0030        127
  12.0216        121
  12.0402        126
  12.0587         96
  12.0773        122
  12.0959        126
  12.1145         98
  12.1330        126
  12.1516        105
  12.1702         96
  12.1888        109
  12.2073        119
  12.2259         93
  12.2445        101
  12.2631         93
  12.2816         99
  12.3002        103
  12.3188        109
  12.3374        101
  12.3559        106
  12.3745        107
  12.3931        108
  12.4117        116
  12.4302        115
  12.4488        112
  12.4674         99
  12.4860        100
  12.5045        107
  12.5231        103
  12.5417        114
  12.5603        104
  12.5788        107
  12.5974        122
  12.6160        107
  12.6346        113
  12.6531        107
  12.6717         99
  12.6903         95
  12.7089         94
  12.7274        111
  12.7460        104
  12.7646        115
  12.7832         80
  12.8018        111
  12.8203        106
  12.8389         99
  12.8575        117
  12.8761         95
  12.8946         91
  12.9132         97
  12.9318         95
  12.9504        103
  12.9689        141
  12.9875        104
  13.0061        116
  13.0247        100
  13.0432        110
  13.0618         96
  13.0804         98
  13.0990        102
  13.1175         97
  13.1361         87
  13.1547         92
  13.1733        106
  13.1918        106
  13.2104        105
  13.2290        110
  13.2476        113
  13.2661         95
  13.2847        105
  13.3033         95
  13.3219         98
  13.3404        110
  13.3590         92
  13.3776         98
  13.3962         98
  13.4147         94
  13.4333         91
  13.4519         84
  13.4705         93
  13.4890         90
  13.5076         94
  13.5262         98
  13.5448         93
  13.5634         94
  13.5819         97
  13.6005         84
  13.6191         95
  13.6377         88
  13.6562         88
  13.6748         94
  13.6934         87
  13.7120         93
  13.7305        102
  13.7491         88
  13.7677         92
  13.7863        102
  13.8048         85
  13.8234         83
  13.8420        106
  13.8606         86
  13.8791         73
  13.8977         95
  13.9163         81
  13.9349        104
  13.9534         96
  13.9720         93
  13.9906         89
  14.0092         86
  14.0277         89
  14.0463         89
  14.0649        104
  14.0835         97
  14.1020         86
  14.1206         95
  14.1392         98
  14.1578         87
  14.1763         73
  14.1949         89
  14.2135         84
  14.2321         93
  14.2506         89
  14.2692         87
  14.2878         84
  14.3064         81
  14.3250         75
  14.3435         93
  14.3621         86
  14.3807         99
  14.3993         87
  14.4178         94
  14.4364         78
  14.4550         91
  14.4736         89
  14.4921         93
  14.5107         97
  14.5293         86
  14.5479         89
  14.5664         83
  14.5850         67
  14.6036        101
  14.6222         96
  14.6407         98
  14.6593         86
  14.6779         83
  14.6965         78
  14.7150         70
  14.7336         79
  14.7522         83
  14.7708         86
  14.7893         86
  14.8079         78
  14.8265         93
  14.8451         79
  14.8636         80
  14.8822         75
  14.9008         87
  14.9194         98
  14.9379         91
  14.9565         83
  14.9751         68
  14.9937         70
  15.0122         96
  15.0308         84
  15.0494        100
  15.0680         91
  15.0866         77
  15.1051         98
  15.1237         75
  15.1423         80
  15.1609         73
  15.1794         73
  15.1980         75
  15.2166         86
  15.2352         71
  15.2537         88
  15.2723         90
  15.2909         93
  15.3095         96
  15.3280         78
  15.3466        105
  15.3652         84
  15.3838         91
  15.4023         66
  15.4209         59
  15.4395         84
  15.4581         81
  15.4766         70
  15.4952         84
  15.5138         81
  15.5324         78
  15.5509         83
  15.5695         80
  15.5881         89
  15.6067         89
  15.6252         81
  15.6438         82
  15.6624         84
  15.6810         64
  15.6995         95
  15.7181         59
  15.7367         80
  15.7553         86
  15.7738         73
  15.7924         91
  15.8110         63
  15.8296         75
  15.8482         76
  15.8667         72
  15.8853         93
  15.9039         77
  15.9225         86
  15.9410         70
  15.9596         80
  15.9782         87
  15.9968         98
  16.0153         89
  16.0339         95
  16.0525         99
  16.0711         82
  16.0896         91
  16.1082         67
  16.1268         71
  16.1454         61
  16.1639         62
  16.1825        101
  16.2011         75
  16.2197         80
  16.2382         85
  16.2568         71
  16.2754         61
  16.2940         94
  16.3125         70
  16.3311         75
  16.3497         75
  16.3683         78
  16.3868         74
  16.4054         80
  16.4240         89
  16.4426         80
  16.4611         85
  16.4797         92
  16.4983         80
  16.5169         95
  16.5354         76
  16.5540         80
  16.5726         77
  16.5912         87
  16.6097         62
  16.6283         67
  16.6469         68
  16.6655         84
  16.6841         79
  16.7026         78
  16.7212         84
  16.7398         85
  16.7584         84
  16.7769         89
  16.7955         93
  16.8141         85
  16.8327         80
  16.8512         72
  16.8698         90
  16.8884         80
  16.9070         75
  16.9255         83
  16.9441         79
  16.9627         76
  16.9813         81
  16.9998         95
  17.0184         81
  17.0370         68
  17.0556         83
  17.0741         62
  17.0927         70
  17.1113         79
  17.1299         77
  17.1484         98
  17.1670         81
  17.1856         63
  17.2042         78
  17.2227         89
  17.2413         69
  17.2599         94
  17.2785         87
  17.2970         76
  17.3156         92
  17.3342         81
  17.3528         71
  17.3713         78
  17.3899         88
  17.4085         76
  17.4271         85
  17.4457         60
  17.4642         69
  17.4828         75
  17.5014         94
  17.5200         75
  17.5385         76
  17.5571         96
  17.5757         89
  17.5943         73
  17.6128         88
  17.6314         74
  17.6500         64
  17.6686         82
  17.6871         77
  17.7057         72
  17.7243         77
  17.7429         85
  17.7614         81
  17.7800         81
  17.7986         83
  17.8172         70
  17.8357         83
  17.8543         74
  17.8729         70
  17.8915         79
  17.9100         74
  17.9286         84
  17.9472         82
  17.9658         65
  17.9843         78
  18.0029         79
  18.0215         84
  18.0401         80
  18.0586         74
  18.0772         98
  18.0958         74
  18.1144         82
  18.1329         80
  18.1515         85
  18.1701         80
  18.1887         90
  18.2073         83
  18.2258         75
  18.2444         72
  18.2630         99
  18.2816         75
  18.3001         71
  18.3187         82
  18.3373         69
  18.3559         68
  18.3744         77
  18.3930         91
  18.4116         83
  18.4302         91
  18.4487         80
  18.4673         80
  18.4859         93
  18.5045         84
  18.5230         62
  18.5416         75
  18.5602         84
  18.5788         86
  18.5973         69
  18.6159        100
  18.6345         87
  18.6531         76
  18.6716         86
  18.6902         75
  18.7088        100
  18.7274         87
  18.7459         90
  18.7645         81
  18.7831         82
  18.8017         94
  18.8202         78
  18.8388         77
  18.8574         93
  18.8760         95
  18.8945         81
  18.9131         86
  18.9317         70
  18.9503         81
  18.9689         93
  18.9874         84
  19.0060         81
  19.0246         69
  19.0432         80
  19.0617         82
  19.0803         81
  19.0989         78
  19.1175         69
  19.1360         72
  19.1546         72
  19.1732         87
  19.1918         91
  19.2103         79
  19.2289         90
  19.2475         94
  19.2661         78
  19.2846         85
  19.3032         85
  19.3218         90
  19.3404         82
  19.3589         90
  19.3775         83
  19.3961         91
  19.4147         90
  19.4332         80
  19.4518         86
  19.4704         93
  19.4890         75
  19.5075         94
  19.5261         89
  19.5447         93
  19.5633         88
  19.5818         92
  19.6004         75
  19.6190         72
  19.6376         78
  19.6561         82
  19.6747         80
  19.6933         91
  19.7119         98
  19.7305         91
  19.7490        101
  19.7676         84
  19.7862        109
  19.8048         91
  19.8233         92
  19.8419         84
  19.8605         86
  19.8791         93
  19.8976         80
  19.9162         92
  19.9348         83
  19.9534         81
  19.9719        100
  19.9905        109
  20.0091         79
  20.0277        101
  20.0462        105
  20.0648         96
  20.0834         93
  20.1020         81
  20.1205         92
  20.1391         74
  20.1577         91
  20.1763         84
  20.1948         89
  20.2134         77
  20.2320         86
  20.2506        105
  20.2691         85
  20.2877        102
  20.3063         85
  20.3249        103
  20.3434         97
  20.3620         91
  20.3806         97
  20.3992         99
  20.4177        102
  20.4363         79
  20.4549         69
  20.4735         95
  20.4921         91
  20.5106         95
  20.5292         67
  20.5478        105
  20.5664         90
  20.5849         97
  20.6035         84
  20.6221        108
  20.6407         82
  20.6592         76
  20.6778         97
  20.6964         85
  20.7150         88
  20.7335         93
  20.7521         95
  20.7707         99
  20.7893         94
  20.8078        102
  20.8264         98
  20.8450         93
  20.8636        120
  20.8821         83
  20.9007        101
  20.9193         82
  20.9379         95
  20.9564         90
  20.9750         97
  20.9936         91
  21.0122        102
  21.0307         98
  21.0493        107
  21.0679        111
  21.0865        104
  21.1050        108
  21.1236        120
  21.1422         98
  21.1608        103
  21.1793        142
  21.1979        132
  21.2165        155
  21.2351        170
  21.2537        131
  21.2722        171
  21.2908        160
  21.3094        140
  21.3280        178
  21.3465        261
  21.3651        264
  21.3837        203
  21.4023        179
  21.4208        184
  21.4394        135
  21.4580        110
  21.4766         90
  21.4951        103
  21.5137         92
  21.5323        105
  21.5509        105
  21.5694        103
  21.5880        105
  21.6066        104
  21.6252         90
  21.6437         89
  21.6623         94
  21.6809         88
  21.6995        108
  21.7180         92
  21.7366         88
  21.7552         98
  21.7738        102
  21.7923         84
  21.8109         92
  21.8295         86
  21.8481        106
  21.8666        103
  21.8852         88
  21.9038         84
  21.9224        104
  21.9409         98
  21.9595         91
  21.9781        100
  21.9967         87
  22.0152        114
  22.0338        102
  22.0524         81
  22.0710         85
  22.0896         87
  22.1081         89
  22.1267         98
  22.1453         94
  22.1639        100
  22.1824         85
  22.2010         86
  22.2196         99
  22.2382         94
  22.2567         86
  22.2753         95
  22.2939         83
  22.3125        105
  22.3310         95
  22.3496         87
  22.3682        106
  22.3868        100
  22.4053         86
  22.4239         88
  22.4425         89
  22.4611        112
  22.4796        109
  22.4982         95
  22.5168        100
  22.5354        110
  22.5539         94
  22.5725         85
  22.5911        117
  22.6097        107
  22.6282        113
  22.6468         83
  22.6654         96
  22.6840        102
  22.7025        104
  22.7211        102
  22.7397        101
  22.7583        104
  22.7768         90
  22.7954         96
  22.8140         97
  22.8326         85
  22.8512         92
  22.8697         95
  22.8883         94
  22.9069         91
  22.9255         96
  22.9440         80
  22.9626        124
  22.9812        104
  22.9998        111
  23.0183        101
  23.0369        102
  23.0555        105
  23.0741        101
  23.0926        121
  23.1112         98
  23.1298        105
  23.1484         87
  23.1669         88
  23.1855         88
  23.2041        110
  23.2227         90
  23.2412        111
  23.2598         91
  23.2784         92
  23.2970         95
  23.3155         95
  23.3341        113
  23.3527         86
  23.3713         92
  23.3898         88
  23.4084         99
  23.4270         97
  23.4456         94
  23.4641        118
  23.4827        105
  23.5013         78
  23.5199        111
  23.5384        100
  23.5570        103
  23.5756         93
  23.5942        128
  23.6128         99
  23.6313         97
  23.6499         98
  23.6685         91
  23.6871         96
  23.7056         95
  23.7242        110
  23.7428         92
  23.7614         80
  23.7799         98
  23.7985        103
  23.8171         85
  23.8357        120
  23.8542         91
  23.8728        113
  23.8914        108
  23.9100         95
  23.9285        116
  23.9471        117
  23.9657        100
  23.9843        100
  24.0028         97
  24.0214        109
  24.0400        106
  24.0586         91
  24.0771        119
  24.0957         98
  24.1143        110
  24.1329        110
  24.1514         88
  24.1700        127
  24.1886         96
  24.2072        108
  24.2257         83
  24.2443        117
  24.2629         98
  24.2815         98
  24.3000        109
  24.3186        104
  24.3372        110
  24.3558        109
  24.3744        113
  24.3929        117
  24.4115        105
  24.4301         92
  24.4487         92
  24.4672         94
  24.4858        105
  24.5044         99
  24.5230         91
  24.5415         99
  24.5601        104
  24.5787         98
  24.5973         94
  24.6158         96
  24.6344         99
  24.6530        112
  24.6716         93
  24.6901        100
  24.7087        102
  24.7273         95
  24.7459         98
  24.7644         87
  24.7830         92
  24.8016        115
  24.8202         89
  24.8387        106
  24.8573        108
  24.8759        107
  24.8945         89
  24.9130         85
  24.9316        107
  24.9502         73
  24.9688         95
  24.9873        112
  25.0059         97
  25.0245        101
  25.0431         95
  25.0616        102
  25.0802         94
  25.0988        106
  25.1174         94
  25.1360         98
  25.1545         90
  25.1731         93
  25.1917         87
  25.2103        106
  25.2288         86
  25.2474         92
  25.2660         96
  25.2846         91
  25.3031         96
  25.3217         96
  25.3403         86
  25.3589         87
  25.3774         89
  25.3960        109
  25.4146        100
  25.4332        111
  25.4517         79
  25.4703         89
  25.4889         93
  25.5075         98
  25.5260         91
  25.5446         97
  25.5632         93
  25.5818         89
  25.6003        101
  25.6189         97
  25.6375         94
  25.6561         84
  25.6746         96
  25.6932        102
  25.7118        114
  25.7304         96
  25.7489         83
  25.7675        110
  25.7861         82
  25.8047         94
  25.8232         91
  25.8418         90
  25.8604         77
  25.8790        103
  25.8976         88
  25.9161         86
  25.9347         70
  25.9533        100
  25.9719         81
  25.9904        104
  26.0090         88
  26.0276        118
  26.0462         99
  26.0647        101
  26.0833         87
  26.1019         94
  26.1205         76
  26.1390         90
  26.1576         86
  26.1762         93
  26.1948         83
  26.2133         89
  26.2319         78
  26.2505         85
  26.2691         98
  26.2876         90
  26.3062         82
  26.3248         81
  26.3434         90
  26.3619        100
  26.3805        103
  26.3991        107
  26.4177        117
  26.4362         96
  26.4548         99
  26.4734         80
  26.4920         87
  26.5105        110
  26.5291         98
  26.5477         86
  26.5663         90
  26.5848         83
  26.6034         92
  26.6220        112
  26.6406         93
  26.6591         90
  26.6777        105
  26.6963        102
  26.7149         93
  26.7335        106
  26.7520         77
  26.7706         86
  26.7892        101
  26.8078         80
  26.8263         98
  26.8449         76
  26.8635         95
  26.8821        109
  26.9006         98
  26.9192         94
  26.9378        101
  26.9564        103
  26.9749        106
  26.9935         83
  27.0121         83
  27.0307         88
  27.0492         83
  27.0678         88
  27.0864        100
  27.1050         91
  27.1235        102
  27.1421         95
  27.1607        101
  27.1793        121
  27.1978        118
  27.2164        108
  27.2350        111
  27.2536        105
  27.2721        112
  27.2907        111
  27.3093         95
  27.3279         88
  27.3464         86
  27.3650         89
  27.3836         90
  27.4022        101
  27.4207         78
  27.4393         91
  27.4579         88
  27.4765         85
  27.4951         83
  27.5136         94
  27.5322         86
  27.5508         80
  27.5694         81
  27.5879         71
  27.6065         68
  27.6251         82
  27.6437         91
  27.6622         80
  27.6808        100
  27.6994         97
  27.7180         92
  27.7365        107
  27.7551         89
  27.7737        100
  27.7923         91
  27.8108         83
  27.8294         89
  27.8480         76
  27.8666         89
  27.8851        101
  27.9037         90
  27.9223         93
  27.9409         83
  27.9594         95
  27.9780         82
  27.9966         89
  28.0152         66
  28.0337         74
  28.0523         97
  28.0709         77
  28.0895         83
  28.1080         92
  28.1266         88
  28.1452         95
  28.1638         91
  28.1823         95
  28.2009         88
  28.2195         76
  28.2381         91
  28.2567         78
  28.2752         88
  28.2938         83
  28.3124         80
  28.3310         97
  28.3495         85
  28.3681         91
  28.3867         76
  28.4053         73
  28.4238         79
  28.4424         89
  28.4610         84
  28.4796         81
  28.4981         86
  28.5167         74
  28.5353         84
  28.5539         69
  28.5724         76
  28.5910         78
  28.6096         78
  28.6282         89
  28.6467         80
  28.6653         75
  28.6839         85
  28.7025         87
  28.7210         93
  28.7396        105
  28.7582         63
  28.7768         76
  28.7953         67
  28.8139         72
  28.8325         72
  28.8511         78
  28.8696         83
  28.8882         67
  28.9068         84
  28.9254         76
  28.9439         86
  28.9625         87
  28.9811         94
  28.9997         67
  29.0183         89
  29.0368        103
  29.0554         80
  29.0740         84
  29.0926         85
  29.1111         77
  29.1297         82
  29.1483         74
  29.1669         81
  29.1854         69
  29.2040         73
  29.2226         78
  29.2412         66
  29.2597         79
  29.2783         83
  29.2969         67
  29.3155         75
  29.3340         86
  29.3526         78
  29.3712         80
  29.3898         80
  29.4083         81
  29.4269         77
  29.4455         93
  29.4641         94
  29.4826         66
  29.5012         81
  29.5198         81
  29.5384         89
  29.5569         77
  29.5755         79
  29.5941         76
  29.6127         83
  29.6312         83
  29.6498         94
  29.6684         64
  29.6870         59
  29.7055         91
  29.7241         88
  29.7427         78
  29.7613         72
  29.7799         73
  29.7984         83
  29.8170         68
  29.8356         81
  29.8542         90
  29.8727         75
  29.8913         80
  29.9099         58
  29.9285         85
  29.9470         81
  29.9656         77
  29.9842        103
  30.0028         83
  30.0213         90
  30.0399         59
  30.0585         81
  30.0771         78
  30.0956         66
  30.1142         56
  30.1328         82
  30.1514         77
  30.1699         92
  30.1885         66
  30.2071         77
  30.2257         55
  30.2442         81
  30.2628         85
  30.2814         74
  30.3000         97
  30.3185         90
  30.3371         85
  30.3557        138
  30.3743        156
  30.3928        152
  30.4114        148
  30.4300        109
  30.4486        130
  30.4671        107
  30.4857         99
  30.5043         83
  30.5229         83
  30.5415         75
  30.5600         83
  30.5786         88
  30.5972         78
  30.6158         79
  30.6343         84
  30.6529         71
  30.6715         71
  30.6901         69
  30.7086         70
  30.7272         87
  30.7458         70
  30.7644         72
  30.7829         71
  30.8015         75
  30.8201         75
  30.8387         62
  30.8572         75
  30.8758         76
  30.8944         57
  30.9130         77
  30.9315         76
  30.9501         81
  30.9687         75
  30.9873         75
  31.0058         66
  31.0244         79
  31.0430         65
  31.0616         64
  31.0801         72
  31.0987         68
  31.1173         86
  31.1359         60
  31.1544         60
  31.1730         68
  31.1916         64
  31.2102         74
  31.2287         71
  31.2473         67
  31.2659         68
  31.2845         80
  31.3030         69
  31.3216         53
  31.3402         67
  31.3588         69
  31.3774         63
  31.3959         84
  31.4145         68
  31.4331         75
  31.4517         70
  31.4702         59
  31.4888         59
  31.5074         63
  31.5260         45
  31.5445         79
  31.5631         66
  31.5817         64
  31.6003         71
  31.6188         73
  31.6374         62
  31.6560         88
  31.6746         73
  31.6931         71
  31.7117         50
  31.7303         50
  31.7489         67
  31.7674         55
  31.7860         71
  31.8046         74
  31.8232         64
  31.8417         54
  31.8603         64
  31.8789         52
  31.8975         73
  31.9160         69
  31.9346         53
  31.9532         50
  31.9718         64
  31.9903         78
  32.0089         58
  32.0275         63
  32.0461         53
  32.0646         61
  32.0832         65
  32.1018         61
  32.1204         77
  32.1390         68
  32.1575         65
  32.1761         75
  32.1947         68
  32.2133         72
  32.2318         56
  32.2504         60
  32.2690         60
  32.2876         73
  32.3061         65
  32.3247         63
  32.3433         62
  32.3619         69
  32.3804         64
  32.3990         69
  32.4176         68
  32.4362         83
  32.4547         71
  32.4733         72
  32.4919         70
  32.5105         70
  32.5290         74
  32.5476         68
  32.5662         64
  32.5848         65
  32.6033         66
  32.6219         66
  32.6405         63
  32.6591         69
  32.6776         76
  32.6962         72
  32.7148         60
  32.7334         72
  32.7519         58
  32.7705         74
  32.7891         60
  32.8077         61
  32.8262         49
  32.8448         67
  32.8634         59
  32.8820         73
  32.9006         55
  32.9191         47
  32.9377         48
  32.9563         57
  32.9749         65
  32.9934         62
  33.0120         70
  33.0306         58
  33.0492         55
  33.0677         70
  33.0863         53
  33.1049         51
  33.1235         64
  33.1420         58
  33.1606         54
  33.1792         63
  33.1978         57
  33.2163         77
  33.2349         62
  33.2535         72
  33.2721         66
  33.2906         50
  33.3092         64
  33.3278         65
  33.3464         54
  33.3649         50
  33.3835         78
  33.4021         63
  33.4207         63
  33.4392         54
  33.4578         68
  33.4764         55
  33.4950         58
  33.5135         48
  33.5321         66
  33.5507         63
  33.5693         43
  33.5878         59
  33.6064         57
  33.6250         45
  33.6436         53
  33.6622         62
  33.6807         64
  33.6993         46
  33.7179         55
  33.7365         66
  33.7550         63
  33.7736         50
  33.7922         54
  33.8108         65
  33.8293         59
  33.8479         54
  33.8665         78
  33.8851         50
  33.9036         52
  33.9222         59
  33.9408         57
  33.9594         55
  33.9779         47
  33.9965         72
  34.0151         54
  34.0337         69
  34.0522         56
  34.0708         48
  34.0894         51
  34.1080         53
  34.1265         69
  34.1451         68
  34.1637         36
  34.1823         49
  34.2008         65
  34.2194         61
  34.2380         64
  34.2566         68
  34.2751         56
  34.2937         56
  34.3123         47
  34.3309         59
  34.3494         55
  34.3680         52
  34.3866         54
  34.4052         57
  34.4238         50
  34.4423         52
  34.4609         59
  34.4795         60
  34.4981         60
  34.5166         59
  34.5352         49
  34.5538         43
  34.5724         64
  34.5909         59
  34.6095         57
  34.6281         70
  34.6467         61
  34.6652         46
  34.6838         64
  34.7024         77
  34.7210         71
  34.7395         70
  34.7581         77
  34.7767         74
  34.7953         71
  34.8138         72
  34.8324         74
  34.8510         72
  34.8696         72
  34.8881         64
  34.9067         59
  34.9253         62
  34.9439         54
  34.9624         65
  34.9810         62
  34.9996         52
  35.0182         57
  35.0367         55
  35.0553         63
  35.0739         51
  35.0925         62
  35.1110         48
  35.1296         42
  35.1482         53
  35.1668         34
  35.1854         54
  35.2039         46
  35.2225         51
  35.2411         47
  35.2597         50
  35.2782         56
  35.2968         61
  35.3154         42
  35.3340         50
  35.3525         59
  35.3711         54
  35.3897         47
  35.4083         50
  35.4268         48
  35.4454         61
  35.4640         46
  35.4826         40
  35.5011         54
  35.5197         42
  35.5383         49
  35.5569         65
  35.5754         43
  35.5940         42
  35.6126         38
  35.6312         52
  35.6497         51
  35.6683         38
  35.6869         46
  35.7055         63
  35.7240         47
  35.7426         40
  35.7612         51
  35.7798         44
  35.7983         52
  35.8169         40
  35.8355         47
  35.8541         39
  35.8726         58
  35.8912         52
  35.9098         41
  35.9284         50
  35.9469         57
  35.9655         43
  35.9841         43
  36.0027         51
  36.0213         44
  36.0398         46
  36.0584         47
  36.0770         45
  36.0956         50
  36.1141         54
  36.1327         47
  36.1513         42
  36.1699         48
  36.1884         49
  36.2070         59
  36.2256         55
  36.2442         51
  36.2627         57
  36.2813         45
  36.2999         67
  36.3185         58
  36.3370         57
  36.3556         35
  36.3742         36
  36.3928         34
  36.4113         61
  36.4299         33
  36.4485         43
  36.4671         48
  36.4856         45
  36.5042         47
  36.5228         52
  36.5414         49
  36.5599         58
  36.5785         46
  36.5971         40
  36.6157         46
  36.6342         47
  36.6528         44
  36.6714         46
  36.6900         53
  36.7085         53
  36.7271         43
  36.7457         44
  36.7643         54
  36.7829         53
  36.8014         49
  36.8200         49
  36.8386         54
  36.8572         40
  36.8757         40
  36.8943         35
  36.9129         53
  36.9315         55
  36.9500         55
  36.9686         47
  36.9872         47
  37.0058         42
  37.0243         46
  37.0429         50
  37.0615         33
  37.0801         38
  37.0986         53
  37.1172         46
  37.1358         45
  37.1544         51
  37.1729         53
  37.1915         56
  37.2101         52
  37.2287         48
  37.2472         47
  37.2658         39
  37.2844         49
  37.3030         52
  37.3215         41
  37.3401         47
  37.3587         51
  37.3773         59
  37.3958         63
  37.4144         56
  37.4330         65
  37.4516         96
  37.4701         66
  37.4887         63
  37.5073         58
  37.5259         59
  37.5445         61
  37.5630         44
  37.5816         40
  37.6002         52
  37.6188         43
  37.6373         42
  37.6559         48
  37.6745         36
  37.6931         31
  37.7116         51
  37.7302         57
  37.7488         48
  37.7674         42
  37.7859         39
  37.8045         44
  37.8231         52
  37.8417         43
  37.8602         39
  37.8788         46
  37.8974         44
  37.9160         42
  37.9345         36
  37.9531         52
  37.9717         44
  37.9903         50
  38.0088         46
  38.0274         44
  38.0460         49
  38.0646         52
  38.0831         30
  38.1017         48
  38.1203         50
  38.1389         42
  38.1574         48
  38.1760         37
  38.1946         42
  38.2132         47
  38.2317         40
  38.2503         48
  38.2689         40
  38.2875         44
  38.3061         41
  38.3246         43
  38.3432         41
  38.3618         29
  38.3804         49
  38.3989         46
  38.4175         49
  38.4361         39
  38.4547         34
  38.4732         38
  38.4918         42
  38.5104         29
  38.5290         44
  38.5475         37
  38.5661         42
  38.5847         51
  38.6033         40
  38.6218         34
  38.6404         39
  38.6590         46
  38.6776         42
  38.6961         54
  38.7147         38
  38.7333         46
  38.7519         38
  38.7704         36
  38.7890         41
  38.8076         46
  38.8262         53
  38.8447         39
  38.8633         41
  38.8819         37
  38.9005         43
  38.9190         34
  38.9376         37
  38.9562         52
  38.9748         32
  38.9933         51
  39.0119         51
  39.0305         44
  39.0491         42
  39.0677         51
  39.0862         41
  39.1048         52
  39.1234         39
  39.1420         34
  39.1605         34
  39.1791         42
  39.1977         57
  39.2163         49
  39.2348         52
  39.2534         39
  39.2720         50
  39.2906         37
  39.3091         35
  39.3277         33
  39.3463         37
  39.3649         43
  39.3834         40
  39.4020         41
  39.4206         33
  39.4392         41
  39.4577         45
  39.4763         34
  39.4949         35
  39.5135         30
  39.5320         32
  39.5506         36
  39.5692         37
  39.5878         44
  39.6063         47
  39.6249         31
  39.6435         47
  39.6621         34
  39.6806         51
  39.6992         39
  39.7178         39
  39.7364         52
  39.7549         40
  39.7735         36
  39.7921         48
  39.8107         40
  39.8293         38
  39.8478         44
  39.8664         41
  39.8850         37
  39.9036         28
  39.9221         35
  39.9407         45
  39.9593         40
  39.9779         42
  39.9964         27
  40.0150         34
  40.0336         28
  40.0522         39
  40.0707         32
  40.0893         38
  40.1079         34
  40.1265         45
  40.1450         32
  40.1636         41
  40.1822         33
  40.2008         36
  40.2193         43
  40.2379         42
  40.2565         37
  40.2751         29
  40.2936         48
  40.3122         36
  40.3308         30
  40.3494         44
  40.3679         43
  40.3865         23
  40.4051         40
  40.4237         47
  40.4422         40
  40.4608         38
  40.4794         31
  40.4980         35
  40.5165         49
  40.5351         34
  40.5537         37
  40.5723         31
  40.5908         33
  40.6094         42
  40.6280         51
  40.6466         51
  40.6652         42
  40.6837         38
  40.7023         36
  40.7209         44
  40.7395         44
  40.7580         39
  40.7766         30
  40.7952         41
  40.8138         44
  40.8323         40
  40.8509         31
  40.8695         46
  40.8881         31
  40.9066         28
  40.9252         47
  40.9438         37
  40.9624         45
  40.9809         31
  40.9995         25
  41.0181         49
  41.0367         41
  41.0552         37
  41.0738         44
  41.0924         36
  41.1110         36
  41.1295         43
  41.1481         33
  41.1667         34
  41.1853         44
  41.2038         36
  41.2224         34
  41.2410         40
  41.2596         39
  41.2781         27
  41.2967         41
  41.3153         45
  41.3339         46
  41.3524         35
  41.3710         37
  41.3896         34
  41.4082         38
  41.4268         43
  41.4453         28
  41.4639         34
  41.4825         28
  41.5011         49
  41.5196         40
  41.5382         39
  41.5568         32
  41.5754         33
  41.5939         39
  41.6125         52
  41.6311         44
  41.6497         43
  41.6682         33
  41.6868         33
  41.7054         35
  41.7240         29
  41.7425         28
  41.7611         39
  41.7797         35
  41.7983         38
  41.8168         40
  41.8354         36
  41.8540         21
  41.8726         35
  41.8911         27
  41.9097         37
  41.9283         42
  41.9469         50
  41.9654         42
  41.9840         36
  42.0026         38
  42.0212         34
  42.0397         33
  42.0583         42
  42.0769         34
  42.0955         29
  42.1140         31
  42.1326         32
  42.1512         44
  42.1698         32
  42.1884         40
  42.2069         39
  42.2255         34
  42.2441         38
  42.2627         46
  42.2812         40
  42.2998         36
  42.3184         32
  42.3370         33
  42.3555         39
  42.3741         33
  42.3927         44
  42.4113         41
  42.4298         55
  42.4484         42
  42.4670         38
  42.4856         31
  42.5041         28
  42.5227         37
  42.5413         32
  42.5599         43
  42.5784         30
  42.5970         34
  42.6156         27
  42.6342         35
  42.6527         40
  42.6713         32
  42.6899         38
  42.7085         45
  42.7270         29
  42.7456         39
  42.7642         31
  42.7828         32
  42.8013         35
  42.8199         43
  42.8385         33
  42.8571         36
  42.8756         30
  42.8942         41
  42.9128         43
  42.9314         32
  42.9500         35
  42.9685         35
  42.9871         42
  43.0057         33
  43.0243         37
  43.0428         50
  43.0614         50
  43.0800         38
  43.0986         46
  43.1171         35
  43.1357         43
  43.1543         29
  43.1729         33
  43.1914         45
  43.2100         45
  43.2286         40
  43.2472         41
  43.2657         30
  43.2843         47
  43.3029         37
  43.3215         39
  43.3400         37
  43.3586         50
  43.3772         34
  43.3958         51
  43.4143         42
  43.4329         45
  43.4515         40
  43.4701         42
  43.4886         55
  43.5072         76
  43.5258         57
  43.5444         55
  43.5629         51
  43.5815         43
  43.6001         51
  43.6187         49
  43.6372         46
  43.6558         50
  43.6744         38
  43.6930         46
  43.7116         41
  43.7301         42
  43.7487         33
  43.7673         41
  43.7859         40
  43.8044         45
  43.8230         34
  43.8416         30
  43.8602         43
  43.8787         32
  43.8973         19
  43.9159         32
  43.9345         51
  43.9530         40
  43.9716         32
  43.9902         44
  44.0088         43
  44.0273         30
  44.0459         38
  44.0645         38
  44.0831         39
  44.1016         37
  44.1202         26
  44.1388         40
  44.1574         40
  44.1759         25
  44.1945         33
  44.2131         40
  44.2317         35
  44.2502         36
  44.2688         47
  44.2874         36
  44.3060         48
  44.3245         42
  44.3431         42
  44.3617         37
  44.3803         37
  44.3988         47
  44.4174         29
  44.4360         40
  44.4546         44
  44.4732         34
  44.4917         41
  44.5103         36
  44.5289         38
  44.5475         32
  44.5660         46
  44.5846         46
  44.6032         36
  44.6218         33
  44.6403         33
  44.6589         35
  44.6775         34
  44.6961         44
  44.7146         37
  44.7332         44
  44.7518         38
  44.7704         43
  44.7889         51
  44.8075         42
  44.8261         33
  44.8447         28
  44.8632         28
  44.8818         30
  44.9004         38
  44.9190         29
  44.9375         35
  44.9561         38
  44.9747         32
  44.9933         28
  45.0118         25
  45.0304         25
  45.0490         33
  45.0676         35
  45.0861         26
  45.1047         41
  45.1233         23
  45.1419         39
  45.1604         33
  45.1790         27
  45.1976         29
  45.2162         43
  45.2347         37
  45.2533         28
  45.2719         27
  45.2905         32
  45.3091         37
  45.3276         28
  45.3462         39
  45.3648         33
  45.3834         23
  45.4019         28
  45.4205         39
  45.4391         39
  45.4577         25
  45.4762         25
  45.4948         41
  45.5134         41
  45.5320         40
  45.5505         34
  45.5691         33
  45.5877         25
  45.6063         46
  45.6248         35
  45.6434         33
  45.6620         33
  45.6806         32
  45.6991         28
  45.7177         34
  45.7363         31
  45.7549         43
  45.7734         40
  45.7920         27
  45.8106         32
  45.8292         33
  45.8477         21
  45.8663         33
  45.8849         39
  45.9035         39
  45.9220         26
  45.9406         42
  45.9592         33
  45.9778         27
  45.9963         35
  46.0149         40
  46.0335         49
  46.0521         42
  46.0707         26
  46.0892         24
  46.1078         30
  46.1264         28
  46.1450         29
  46.1635         27
  46.1821         27
  46.2007         28
  46.2193         27
  46.2378         37
  46.2564         27
  46.2750         26
  46.2936         25
  46.3121         28
  46.3307         21
  46.3493         39
  46.3679         39
  46.3864         27
  46.4050         37
  46.4236         34
  46.4422         32
  46.4607         34
  46.4793         32
  46.4979         35
  46.5165         30
  46.5350         29
  46.5536         34
  46.5722         31
  46.5908         39
  46.6093         28
  46.6279         43
  46.6465         30
  46.6651         26
  46.6836         29
  46.7022         23
  46.7208         24
  46.7394         36
  46.7579         32
  46.7765         34
  46.7951         22
  46.8137         32
  46.8323         36
  46.8508         26
  46.8694         31
  46.8880         39
  46.9066         39
  46.9251         41
  46.9437         33
  46.9623         23
  46.9809         30
  46.9994         38
  47.0180         39
  47.0366         30
  47.0552         31
  47.0737         35
  47.0923         26
  47.1109         30
  47.1295         31
  47.1480         36
  47.1666         30
  47.1852         33
  47.2038         32
  47.2223         37
  47.2409         29
  47.2595         37
  47.2781         33
  47.2966         45
  47.3152         35
  47.3338         40
  47.3524         38
  47.3709         37
  47.3895         31
  47.4081         39
  47.4267         28
  47.4452         30
  47.4638         28
  47.4824         30
  47.5010         33
  47.5195         36
  47.5381         33
  47.5567         24
  47.5753         38
  47.5939         40
  47.6124         30
  47.6310         24
  47.6496         36
  47.6682         25
  47.6867         37
  47.7053         44
  47.7239         36
  47.7425         28
  47.7610         40
  47.7796         29
  47.7982         30
  47.8168         30
  47.8353         25
  47.8539         36
  47.8725         38
  47.8911         38
  47.9096         39
  47.9282         37
  47.9468         30
  47.9654         27
  47.9839         35
  48.0025         27
  48.0211         28
  48.0397         37
  48.0582         46
  48.0768         38
  48.0954         38
  48.1140         25
  48.1325         24
  48.1511         32
  48.1697         26
  48.1883         32
  48.2068         30
  48.2254         39
  48.2440         31
  48.2626         31
  48.2811         28
  48.2997         24
  48.3183         31
  48.3369         36
  48.3555         26
  48.3740         34
  48.3926         30
  48.4112         24
  48.4298         30
  48.4483         37
  48.4669         30
  48.4855         26
  48.5041         32
  48.5226         20
  48.5412         28
  48.5598         34
  48.5784         28
  48.5969         33
  48.6155         22
  48.6341         31
  48.6527         42
  48.6712         25
  48.6898         31
  48.7084         33
  48.7270         29
  48.7455         26
  48.7641         38
  48.7827         33
  48.8013         32
  48.8198         28
  48.8384         37
  48.8570         37
  48.8756         30
  48.8941         45
  48.9127         32
  48.9313         41
  48.9499         78
  48.9684         54
  48.9870         55
  49.0056         38
  49.0242         44
  49.0427         33
  49.0613         36
  49.0799         44
  49.0985         37
  49.1171         50
  49.1356         39
  49.1542         48
  49.1728         38
  49.1914         24
  49.2099         36
  49.2285         30
  49.2471         25
  49.2657         32
  49.2842         29
  49.3028         23
  49.3214         30
  49.3400         26
  49.3585         39
  49.3771         36
  49.3957         24
  49.4143         26
  49.4328         36
  49.4514         32
  49.4700         39
  49.4886         27
  49.5071         30
  49.5257         33
  49.5443         34
  49.5629         43
  49.5814         25
  49.6000         19
  49.6186         27
  49.6372         25
  49.6557         24
  49.6743         29
  49.6929         23
  49.7115         33
  49.7300         31
  49.7486         36
  49.7672         33
  49.7858         24
  49.8043         25
  49.8229         37
  49.8415         29
  49.8601         31
  49.8786         34
  49.8972         21
  49.9158         23
  49.9344         22
  49.9530         28
  49.9715         28
  49.9901         35
  50.0087         30
  50.0273         21
  50.0458         37
  50.0644         31
  50.0830         30
  50.1016         27
  50.1201         22
  50.1387         36
  50.1573         31
  50.1759         34
  50.1944         31
  50.2130         31
  50.2316         31
  50.2502         33
  50.2687         29
  50.2873         35
  50.3059         39
  50.3245         28
  50.3430         37
  50.3616         38
  50.3802         28
  50.3988         41
  50.4173         32
  50.4359         35
  50.4545         28
  50.4731         27
  50.4916         31
  50.5102         29
  50.5288         37
  50.5474         32
  50.5659         40
  50.5845         38
  50.6031         17
  50.6217         26
  50.6402         25
  50.6588         23
  50.6774         20
  50.6960         28
  50.7146         27
  50.7331         22
  50.7517         25
  50.7703         29
  50.7889         27
  50.8074         41
  50.8260         35
  50.8446         20
  50.8632         32
  50.8817         26
  50.9003         27
  50.9189         37
  50.9375         29
  50.9560         31
  50.9746         41
  50.9932         32
  51.0118         32
  51.0303         34
  51.0489         32
  51.0675         32
  51.0861         29
  51.1046         32
  51.1232         42
  51.1418         33
  51.1604         28
  51.1789         18
  51.1975         23
  51.2161         25
  51.2347         34
  51.2532         22
  51.2718         36
  51.2904         19
  51.3090         25
  51.3275         30
  51.3461         34
  51.3647         26
  51.3833         29
  51.4018         36
  51.4204         36
  51.4390         35
  51.4576         32
  51.4762         41
  51.4947         36
  51.5133         29
  51.5319         29
  51.5505         46
  51.5690         31
  51.5876         31
  51.6062         26
  51.6248         38
  51.6433         28
  51.6619         29
  51.6805         28
  51.6991         24
  51.7176         26
  51.7362         32
  51.7548         34
  51.7734         38
  51.7919         41
  51.8105         42
  51.8291         39
  51.8477         33
  51.8662         40
  51.8848         36
  51.9034         32
  51.9220         31
  51.9405         30
  51.9591         26
  51.9777         33
  51.9963         30
  52.0148         36
  52.0334         36
  52.0520         25
  52.0706         35
  52.0891         23
  52.1077         22
  52.1263         28
  52.1449         31
  52.1634         22
  52.1820         28
  52.2006         24
  52.2192         22
  52.2378         33
  52.2563         27
  52.2749         30
  52.2935         29
  52.3121         32
  52.3306         29
  52.3492         26
  52.3678         29
  52.3864         34
  52.4049         35
  52.4235         33
  52.4421         27
  52.4607         43
  52.4792         21
  52.4978         28
  52.5164         22
  52.5350         37
  52.5535         20
  52.5721         46
  52.5907         32
  52.6093         27
  52.6278         27
  52.6464         31
  52.6650         32
  52.6836         31
  52.7021         35
  52.7207         25
  52.7393         38
  52.7579         33
  52.7764         39
  52.7950         19
  52.8136         26
  52.8322         29
  52.8507         27
  52.8693         27
  52.8879         30
  52.9065         28
  52.9250         36
  52.9436         33
  52.9622         38
  52.9808         25
  52.9994         35
  53.0179         30
  53.0365         38
  53.0551         32
  53.0737         33
  53.0922         23
  53.1108         30
  53.1294         30
  53.1480         29
  53.1665         28
  53.1851         28
  53.2037         25
  53.2223         31
  53.2408         33
  53.2594         36
  53.2780         30
  53.2966         19
  53.3151         26
  53.3337         24
  53.3523         23
  53.3709         34
  53.3894         29
  53.4080         35
  53.4266         25
  53.4452         20
  53.4637         39
  53.4823         34
  53.5009         28
  53.5195         34
  53.5380         32
  53.5566         29
  53.5752         24
  53.5938         31
  53.6123         32
  53.6309         33
  53.6495         31
  53.6681         26
  53.6866         30
  53.7052         33
  53.7238         29
  53.7424         26
  53.7610         30
  53.7795         21
  53.7981         24
  53.8167         22
  53.8353         21
  53.8538         24
  53.8724         31
  53.8910         23
  53.9096         23
  53.9281         29
  53.9467         35
  53.9653         40
  53.9839         42
  54.0024         32
  54.0210         26
  54.0396         23
  54.0582         34
  54.0767         34
  54.0953         28
  54.1139         32
  54.1325         31
  54.1510         35
  54.1696         41
  54.1882         25
  54.2068         27
  54.2253         36
  54.2439         31
  54.2625         27
  54.2811         33
  54.2996         36
  54.3182         33
  54.3368         26
  54.3554         32
  54.3739         32
  54.3925         41
  54.4111         24
  54.4297         33
  54.4482         26
  54.4668         37
  54.4854         31
  54.5040         26
  54.5225         24
  54.5411         39
  54.5597         23
  54.5783         25
  54.5969         28
  54.6154         19
  54.6340         34
  54.6526         29
  54.6712         24
  54.6897         31
  54.7083         29
  54.7269         35
  54.7455         31
  54.7640         30
  54.7826         29
  54.8012         32
  54.8198         21
  54.8383         26
  54.8569         26
  54.8755         28
  54.8941         25
  54.9126         28
  54.9312         35
  54.9498         22
  54.9684         27
  54.9869         24
  55.0055         33
  55.0241         33
  55.0427         24
  55.0612         30
  55.0798         24
  55.0984         27
  55.1170         23
  55.1355         31
  55.1541         28
  55.1727         23
  55.1913         26
  55.2098         23
  55.2284         23
  55.2470         22
  55.2656         34
  55.2841         34
  55.3027         19
  55.3213         33
  55.3399         31
  55.3585         34
  55.3770         30
  55.3956         25
  55.4142         23
  55.4328         25
  55.4513         28
  55.4699         29
  55.4885         26
  55.5071         35
  55.5256         35
  55.5442         19
  55.5628         26
  55.5814         31
  55.5999         26
  55.6185         21
  55.6371         24
  55.6557         22
  55.6742         23
  55.6928         32
  55.7114         21
  55.7300         23
  55.7485         21
  55.7671         22
  55.7857         31
  55.8043         33
  55.8228         26
  55.8414         26
  55.8600         27
  55.8786         19
  55.8971         29
  55.9157         26
  55.9343         30
  55.9529         30
  55.9714         29
  55.9900         29
  56.0086         26
  56.0272         32
  56.0457         23
  56.0643         28
  56.0829         29
  56.1015         25
  56.1201         35
  56.1386         40
  56.1572         22
  56.1758         30
  56.1944         24
  56.2129         27
  56.2315         30
  56.2501         27
  56.2687         26
  56.2872         41
  56.3058         28
  56.3244         26
  56.3430         33
  56.3615         30
  56.3801         24
  56.3987         28
  56.4173         29
  56.4358         25
  56.4544         24
  56.4730         25
  56.4916         21
  56.5101         29
  56.5287         26
  56.5473         19
  56.5659         19
  56.5844         30
  56.6030         30
  56.6216         25
  56.6402         41
  56.6587         34
  56.6773         29
  56.6959         34
  56.7145         30
  56.7330         28
  56.7516         16
  56.7702         27
  56.7888         31
  56.8073         26
  56.8259         31
  56.8445         24
  56.8631         30
  56.8817         21
  56.9002         28
  56.9188         34
  56.9374         37
  56.9560         27
  56.9745         21
  56.9931         25
  57.0117         33
  57.0303         23
  57.0488         26
  57.0674         34
  57.0860         28
  57.1046         22
  57.1231         18
  57.1417         38
  57.1603         37
  57.1789         24
  57.1974         27
  57.2160         16
  57.2346         23
  57.2532         22
  57.2717         33
  57.2903         35
  57.3089         18
  57.3275         29
  57.3460         27
  57.3646         37
  57.3832         34
  57.4018         30
  57.4203         19
  57.4389         24
  57.4575         22
  57.4761         33
  57.4946         27
  57.5132         22
  57.5318         30
  57.5504         26
  57.5689         26
  57.5875         23
  57.6061         29
  57.6247         18
  57.6433         28
  57.6618         34
  57.6804         25
  57.6990         32
  57.7176         24
  57.7361         23
  57.7547         26
  57.7733         26
  57.7919         27
  57.8104         23
  57.8290         25
  57.8476         28
  57.8662         22
  57.8847         31
  57.9033         29
  57.9219         23
  57.9405         20
  57.9590         23
  57.9776         25
  57.9962         28
  58.0148         26
  58.0333         29
  58.0519         22
  58.0705         29
  58.0891         23
  58.1076         22
  58.1262         27
  58.1448         25
  58.1634         22
  58.1819         27
  58.2005         28
  58.2191         15
  58.2377         26
  58.2562         28
  58.2748         23
  58.2934         27
  58.3120         17
  58.3305         22
  58.3491         26
  58.3677         28
  58.3863         26
  58.4049         26
  58.4234         38
  58.4420         24
  58.4606         25
  58.4792         25
  58.4977         23
  58.5163         24
  58.5349         30
  58.5535         29
  58.5720         28
  58.5906         27
  58.6092         23
  58.6278         19
  58.6463         30
  58.6649         35
  58.6835         26
  58.7021         25
  58.7206         19
  58.7392         33
  58.7578         35
  58.7764         27
  58.7949         28
  58.8135         31
  58.8321         21
  58.8507         25
  58.8692         28
  58.8878         26
  58.9064         35
  58.9250         15
  58.9435         24
  58.9621         30
  58.9807         21
  58.9993         29
  59.0178         21
  59.0364         28
  59.0550         22
  59.0736         25
  59.0921         29
  59.1107         26
  59.1293         31
  59.1479         33
  59.1664         19
  59.1850         20
  59.2036         25
  59.2222         32
  59.2408         28
  59.2593         32
  59.2779         30
  59.2965         28
  59.3151         25
  59.3336         26
  59.3522         28
  59.3708         30
  59.3894         33
  59.4079         27
  59.4265         18
  59.4451         25
  59.4637         24
  59.4822         25
  59.5008         21
  59.5194         33
  59.5380         30
  59.5565         27
  59.5751         32
  59.5937         26
  59.6123         23
  59.6308         30
  59.6494         28
  59.6680         24
  59.6866         25
  59.7051         32
  59.7237         30
  59.7423         23
  59.7609         22
  59.7794         31
  59.7980         31
  59.8166         27
  59.8352         24
  59.8537         27
  59.8723         27
  59.8909         27
  59.9095         34
  59.9280         27
  59.9466         17
  59.9652         32
  59.9838         31
  60.0024         40
