; (content of file Y:\Sam\Apurva-07-20-2022\puck4\ML_20220718_39_SJD_0_LaB6-2min.raw)
_FILEVERSION = 3
_SAMPLE = ML_20220718_39_SJD_0_LaB6-2min
_+SAMPLE = 
_SITE = USA
_USER = Administrator
_GONIOMETER_CODE = 20
; Goniometer : D8 theta/2theta, stage : Unknown
_ATTACHMENTS_CODE = 0
_GONIOMETER_RADIUS = 200.5
_FIXED_DIVSLIT = 0.6
_FIXED_SAMPLESLIT = 0
_SOLLER_SLITS = 2
_FIXED_DETSLIT = 9.55
_MONOCHROMATOR = 0
; Incident beam monochromator : None
_SOLLER_SLITS_2 = N
_THIN_FILM = N
_BETA_FILTER = Y
_FIXED_ANTISLIT = 5.89
_ANALYZER_CODE = 0
; Received beam analyzer : None
_DATEMEASURED = "26-Jul-2022 08:52:05"
_WL_UNIT = A
_WL1 = 1.5406
_WL2 = 1.54439
_WL3 = 1.39222
_WLRATIO = 0.5
_ANODE = Cu
_V4_INF_CREATOR = XRDWizard
_V4_INF_CREATOR_VERSION = V2.9.0.22
_V4_INF_WIZARD_VERSION = V2.9.0.22
_V4_INF_WIZARD_ADDINS = V2.9.0.22
_V4_INF_WIZARD_DOCTYPE = XRD
_V4_INF_OSUSER = McQueenLab
_V4_INF_USER = Administrator
_V4_INF_SITE = USA
_V4_INF_SAMPLEID = ML_20220718_39_SJD_0_LaB6-2min

; Data for range 1
_DRIVE = COUPLED
_STEPTIME = 5.64
_STEPSIZE = 0.0185756
_STEPMODE = C
_START = 5
_THETA = 2.5
_2THETA = 5
_KHI = 0
_PHI = 0
_X = 0
_Y = 0
_Z = 0
_DETECTOR = 5
; Detector type : Unknown
_DETECTORSLIT = unkn
_AUX1 = 0
_AUX2 = 0
_AUX3 = 0
_TIMESTARTED = 16
_TEMP_RATE = -1
_TEMP_DELAY = -1
_KV = 40
_MA = 40
_RANGE_WL = 1.5406
_3DPLANE = 0
_V4_ADDITIONALDETECTOR = 257
_V4_PSD2THETA = 3.3714
_V4_PSDCHANNEL1 = 0
_V4_PSDAPERTURE = 12.68
_V4_PSDTYPE = 5
_V4_PSDFIXED = 0
_V4_COUNTERS_MASK = 4096
_V4_DRIVES_MASK = 0
_V4_ENCODERS_MASK = 0
_2THETACOUNTS = 1
; 2THETA  PSD
   5.0000        124
   5.0186        139
   5.0372        117
   5.0557        138
   5.0743        116
   5.0929        104
   5.1115        112
   5.1300        120
   5.1486        131
   5.1672        145
   5.1858        141
   5.2043        118
   5.2229        119
   5.2415        111
   5.2601        120
   5.2786        130
   5.2972        117
   5.3158        104
   5.3344        137
   5.3529        111
   5.3715        128
   5.3901        105
   5.4087         98
   5.4272        100
   5.4458         97
   5.4644        113
   5.4830        105
   5.5015        117
   5.5201        126
   5.5387        106
   5.5573        123
   5.5758        128
   5.5944        121
   5.6130        128
   5.6316        111
   5.6501        106
   5.6687         95
   5.6873        114
   5.7059         93
   5.7244        121
   5.7430        123
   5.7616         96
   5.7802         86
   5.7988        106
   5.8173         97
   5.8359        102
   5.8545        117
   5.8731        114
   5.8916        127
   5.9102        111
   5.9288        102
   5.9474         98
   5.9659         89
   5.9845         96
   6.0031        104
   6.0217         99
   6.0402         95
   6.0588         83
   6.0774        103
   6.0960        116
   6.1145         94
   6.1331         93
   6.1517         91
   6.1703         93
   6.1888         90
   6.2074         97
   6.2260         95
   6.2446         91
   6.2631         71
   6.2817         91
   6.3003        100
   6.3189         80
   6.3374         84
   6.3560         93
   6.3746        108
   6.3932         70
   6.4117        106
   6.4303         80
   6.4489         96
   6.4675         84
   6.4860         92
   6.5046         97
   6.5232         81
   6.5418         83
   6.5604         81
   6.5789         75
   6.5975         95
   6.6161         85
   6.6347         99
   6.6532         79
   6.6718         80
   6.6904         87
   6.7090         89
   6.7275         90
   6.7461         61
   6.7647         96
   6.7833        102
   6.8018         75
   6.8204         82
   6.8390         76
   6.8576         79
   6.8761         75
   6.8947         74
   6.9133         87
   6.9319         89
   6.9504         76
   6.9690         83
   6.9876         83
   7.0062         82
   7.0247         68
   7.0433         76
   7.0619         83
   7.0805         86
   7.0990         71
   7.1176         85
   7.1362         73
   7.1548         95
   7.1733         86
   7.1919         82
   7.2105         98
   7.2291         77
   7.2476         74
   7.2662         81
   7.2848         89
   7.3034         77
   7.3220         77
   7.3405         67
   7.3591         82
   7.3777         86
   7.3963         81
   7.4148         81
   7.4334         78
   7.4520         81
   7.4706         76
   7.4891         85
   7.5077         75
   7.5263         78
   7.5449         79
   7.5634         89
   7.5820         88
   7.6006         78
   7.6192         92
   7.6377         77
   7.6563         86
   7.6749         79
   7.6935         70
   7.7120         82
   7.7306         96
   7.7492         83
   7.7678         73
   7.7863         76
   7.8049         98
   7.8235         89
   7.8421        115
   7.8606         78
   7.8792         90
   7.8978         97
   7.9164         91
   7.9349         91
   7.9535         94
   7.9721         93
   7.9907         73
   8.0092         98
   8.0278         93
   8.0464         89
   8.0650         85
   8.0835         86
   8.1021        109
   8.1207         88
   8.1393         83
   8.1579         78
   8.1764         89
   8.1950        102
   8.2136         84
   8.2322        102
   8.2507         85
   8.2693         97
   8.2879        117
   8.3065        111
   8.3250         96
   8.3436         94
   8.3622        107
   8.3808         92
   8.3993        102
   8.4179         95
   8.4365         97
   8.4551        110
   8.4736         95
   8.4922         95
   8.5108        105
   8.5294         87
   8.5479         83
   8.5665        113
   8.5851        104
   8.6037         81
   8.6222         97
   8.6408         86
   8.6594        111
   8.6780        101
   8.6965        103
   8.7151        101
   8.7337         95
   8.7523         93
   8.7708         88
   8.7894        111
   8.8080        111
   8.8266        108
   8.8451        107
   8.8637         91
   8.8823        102
   8.9009         98
   8.9195        121
   8.9380        111
   8.9566        106
   8.9752        106
   8.9938        114
   9.0123        119
   9.0309        109
   9.0495        103
   9.0681        114
   9.0866         87
   9.1052        124
   9.1238        113
   9.1424        104
   9.1609        101
   9.1795        111
   9.1981        113
   9.2167        107
   9.2352        111
   9.2538        107
   9.2724        112
   9.2910        101
   9.3095        118
   9.3281         97
   9.3467        118
   9.3653         99
   9.3838        108
   9.4024        113
   9.4210        123
   9.4396        111
   9.4581        119
   9.4767        102
   9.4953        113
   9.5139        120
   9.5324        112
   9.5510         90
   9.5696         99
   9.5882        112
   9.6067         88
   9.6253        105
   9.6439        132
   9.6625        106
   9.6811        103
   9.6996         96
   9.7182        117
   9.7368        108
   9.7554        104
   9.7739        118
   9.7925        129
   9.8111        103
   9.8297        111
   9.8482        121
   9.8668        109
   9.8854        125
   9.9040        129
   9.9225        117
   9.9411        117
   9.9597        121
   9.9783        114
   9.9968        123
  10.0154        105
  10.0340        117
  10.0526        115
  10.0711        117
  10.0897        123
  10.1083        109
  10.1269        124
  10.1454        111
  10.1640         98
  10.1826        130
  10.2012        120
  10.2197        111
  10.2383        129
  10.2569        127
  10.2755        126
  10.2940        125
  10.3126        125
  10.3312        113
  10.3498        120
  10.3683        121
  10.3869        132
  10.4055        118
  10.4241        102
  10.4427        151
  10.4612        124
  10.4798        115
  10.4984        108
  10.5170        129
  10.5355        106
  10.5541        119
  10.5727        114
  10.5913        115
  10.6098        119
  10.6284        145
  10.6470        113
  10.6656        133
  10.6841        111
  10.7027        122
  10.7213        112
  10.7399        111
  10.7584        134
  10.7770        123
  10.7956        107
  10.8142        111
  10.8327        103
  10.8513        127
  10.8699        123
  10.8885        116
  10.9070        120
  10.9256        127
  10.9442        129
  10.9628        112
  10.9813        112
  10.9999        102
  11.0185        127
  11.0371        112
  11.0556        115
  11.0742        128
  11.0928        134
  11.1114        121
  11.1299        143
  11.1485        113
  11.1671        122
  11.1857        114
  11.2043        120
  11.2228        118
  11.2414        110
  11.2600        119
  11.2786        126
  11.2971        112
  11.3157        106
  11.3343        101
  11.3529        131
  11.3714        119
  11.3900        111
  11.4086        105
  11.4272        108
  11.4457        118
  11.4643        123
  11.4829        116
  11.5015        118
  11.5200        125
  11.5386        119
  11.5572        111
  11.5758        109
  11.5943        126
  11.6129        111
  11.6315        112
  11.6501        115
  11.6686        109
  11.6872        116
  11.7058        128
  11.7244        121
  11.7429        116
  11.7615        101
  11.7801        107
  11.7987        111
  11.8172        106
  11.8358         98
  11.8544        111
  11.8730        128
  11.8915        130
  11.9101         93
  11.9287        104
  11.9473        105
  11.9659        125
  11.9844        119
  12.0030        111
  12.0216        105
  12.0402        109
  12.0587        107
  12.0773        121
  12.0959        128
  12.1145        101
  12.1330        106
  12.1516        124
  12.1702        119
  12.1888        113
  12.2073         97
  12.2259        132
  12.2445        100
  12.2631        107
  12.2816         94
  12.3002        113
  12.3188        100
  12.3374        119
  12.3559        106
  12.3745        105
  12.3931        112
  12.4117        133
  12.4302        133
  12.4488         90
  12.4674        108
  12.4860        108
  12.5045        109
  12.5231        107
  12.5417        105
  12.5603         83
  12.5788        107
  12.5974        115
  12.6160        116
  12.6346        100
  12.6531        111
  12.6717        102
  12.6903        121
  12.7089        125
  12.7274        107
  12.7460         90
  12.7646        101
  12.7832        111
  12.8018        102
  12.8203         84
  12.8389        122
  12.8575         94
  12.8761        116
  12.8946        103
  12.9132        105
  12.9318        100
  12.9504         98
  12.9689         93
  12.9875        113
  13.0061        125
  13.0247        120
  13.0432         98
  13.0618         93
  13.0804         87
  13.0990         92
  13.1175         91
  13.1361        106
  13.1547         97
  13.1733        109
  13.1918        113
  13.2104        104
  13.2290         99
  13.2476         94
  13.2661        105
  13.2847         82
  13.3033         91
  13.3219         97
  13.3404         96
  13.3590         96
  13.3776         93
  13.3962        106
  13.4147        108
  13.4333         97
  13.4519         90
  13.4705         86
  13.4890         81
  13.5076         86
  13.5262         89
  13.5448        105
  13.5634        105
  13.5819         76
  13.6005        119
  13.6191         90
  13.6377         93
  13.6562         99
  13.6748         97
  13.6934         96
  13.7120         96
  13.7305         83
  13.7491         92
  13.7677         78
  13.7863        108
  13.8048         71
  13.8234         95
  13.8420         86
  13.8606         97
  13.8791         93
  13.8977        101
  13.9163        104
  13.9349         86
  13.9534         95
  13.9720         85
  13.9906         88
  14.0092         65
  14.0277         97
  14.0463         81
  14.0649         98
  14.0835         78
  14.1020         89
  14.1206         95
  14.1392         85
  14.1578         81
  14.1763         86
  14.1949         89
  14.2135         98
  14.2321         86
  14.2506         83
  14.2692         97
  14.2878         91
  14.3064         88
  14.3250         97
  14.3435        102
  14.3621         83
  14.3807         81
  14.3993         75
  14.4178         81
  14.4364         77
  14.4550         82
  14.4736         85
  14.4921         93
  14.5107         86
  14.5293         90
  14.5479         80
  14.5664         87
  14.5850         96
  14.6036         82
  14.6222         74
  14.6407         87
  14.6593         68
  14.6779         75
  14.6965         82
  14.7150         96
  14.7336         92
  14.7522         80
  14.7708         74
  14.7893         80
  14.8079         71
  14.8265         97
  14.8451         87
  14.8636         79
  14.8822        101
  14.9008         83
  14.9194         81
  14.9379         77
  14.9565         78
  14.9751         89
  14.9937        104
  15.0122         74
  15.0308         87
  15.0494         61
  15.0680         94
  15.0866         87
  15.1051         82
  15.1237         83
  15.1423        100
  15.1609         64
  15.1794         87
  15.1980         75
  15.2166         90
  15.2352         89
  15.2537         69
  15.2723         64
  15.2909         83
  15.3095         79
  15.3280         84
  15.3466         81
  15.3652         77
  15.3838         88
  15.4023         94
  15.4209         67
  15.4395         72
  15.4581         88
  15.4766         72
  15.4952         80
  15.5138         91
  15.5324        107
  15.5509         69
  15.5695        104
  15.5881         82
  15.6067         73
  15.6252         79
  15.6438         82
  15.6624         81
  15.6810         85
  15.6995         78
  15.7181         82
  15.7367         74
  15.7553         75
  15.7738         90
  15.7924         63
  15.8110         72
  15.8296         79
  15.8482         67
  15.8667         92
  15.8853         64
  15.9039         77
  15.9225         96
  15.9410         78
  15.9596         90
  15.9782         81
  15.9968         86
  16.0153         80
  16.0339         84
  16.0525         81
  16.0711         83
  16.0896         66
  16.1082         69
  16.1268         71
  16.1454         81
  16.1639        105
  16.1825         83
  16.2011         87
  16.2197         79
  16.2382         88
  16.2568         81
  16.2754         91
  16.2940         81
  16.3125         73
  16.3311         75
  16.3497         78
  16.3683         92
  16.3868         66
  16.4054         76
  16.4240         78
  16.4426         89
  16.4611         78
  16.4797         72
  16.4983         63
  16.5169         84
  16.5354         86
  16.5540         89
  16.5726         71
  16.5912         72
  16.6097         73
  16.6283         79
  16.6469         84
  16.6655         76
  16.6841         81
  16.7026         87
  16.7212         88
  16.7398         83
  16.7584         77
  16.7769         91
  16.7955         91
  16.8141         87
  16.8327         76
  16.8512         77
  16.8698         73
  16.8884         82
  16.9070         69
  16.9255         76
  16.9441         76
  16.9627        101
  16.9813         96
  16.9998         82
  17.0184         81
  17.0370         91
  17.0556         76
  17.0741         75
  17.0927         83
  17.1113         85
  17.1299         88
  17.1484         78
  17.1670         75
  17.1856         75
  17.2042         94
  17.2227         81
  17.2413         97
  17.2599         84
  17.2785         82
  17.2970         81
  17.3156         90
  17.3342         66
  17.3528         68
  17.3713         71
  17.3899         82
  17.4085         75
  17.4271         59
  17.4457         80
  17.4642         79
  17.4828         80
  17.5014         94
  17.5200         63
  17.5385         71
  17.5571         94
  17.5757         79
  17.5943         74
  17.6128         76
  17.6314         69
  17.6500         67
  17.6686         86
  17.6871         71
  17.7057         69
  17.7243         75
  17.7429         78
  17.7614         84
  17.7800         72
  17.7986         86
  17.8172         87
  17.8357         72
  17.8543         94
  17.8729         72
  17.8915         80
  17.9100         77
  17.9286         80
  17.9472         74
  17.9658         65
  17.9843         70
  18.0029         74
  18.0215         84
  18.0401         66
  18.0586         80
  18.0772         74
  18.0958         85
  18.1144         78
  18.1329         86
  18.1515         93
  18.1701         89
  18.1887         65
  18.2073         96
  18.2258         82
  18.2444         68
  18.2630         89
  18.2816         80
  18.3001         72
  18.3187         87
  18.3373         91
  18.3559         88
  18.3744         95
  18.3930         85
  18.4116         80
  18.4302         72
  18.4487         83
  18.4673         88
  18.4859         75
  18.5045         77
  18.5230         95
  18.5416         84
  18.5602         99
  18.5788         73
  18.5973         71
  18.6159         94
  18.6345         61
  18.6531         76
  18.6716         78
  18.6902         72
  18.7088         69
  18.7274         74
  18.7459         76
  18.7645         87
  18.7831         90
  18.8017         96
  18.8202         65
  18.8388         80
  18.8574         77
  18.8760         68
  18.8945         83
  18.9131         98
  18.9317         85
  18.9503         83
  18.9689         74
  18.9874         78
  19.0060        101
  19.0246         86
  19.0432         88
  19.0617         89
  19.0803         84
  19.0989         79
  19.1175         79
  19.1360         88
  19.1546         86
  19.1732        105
  19.1918        106
  19.2103         81
  19.2289         77
  19.2475        103
  19.2661         85
  19.2846         80
  19.3032         88
  19.3218         82
  19.3404         93
  19.3589         86
  19.3775         73
  19.3961         77
  19.4147         88
  19.4332         77
  19.4518         96
  19.4704         86
  19.4890         84
  19.5075         91
  19.5261         73
  19.5447         84
  19.5633         88
  19.5818         96
  19.6004         71
  19.6190         76
  19.6376         80
  19.6561        103
  19.6747         77
  19.6933         61
  19.7119         82
  19.7305         86
  19.7490         86
  19.7676         80
  19.7862         85
  19.8048         78
  19.8233        103
  19.8419         81
  19.8605         92
  19.8791         96
  19.8976         84
  19.9162        103
  19.9348         91
  19.9534         91
  19.9719        110
  19.9905         76
  20.0091         82
  20.0277         98
  20.0462         86
  20.0648         90
  20.0834         86
  20.1020         79
  20.1205         80
  20.1391         99
  20.1577         87
  20.1763         87
  20.1948         86
  20.2134         97
  20.2320         86
  20.2506         84
  20.2691         83
  20.2877         90
  20.3063         88
  20.3249         88
  20.3434         93
  20.3620         75
  20.3806         94
  20.3992         88
  20.4177         75
  20.4363         96
  20.4549         88
  20.4735        116
  20.4921         86
  20.5106         87
  20.5292         99
  20.5478         83
  20.5664        103
  20.5849        110
  20.6035         78
  20.6221         93
  20.6407         82
  20.6592         97
  20.6778        119
  20.6964        121
  20.7150         87
  20.7335         98
  20.7521        100
  20.7707         81
  20.7893         92
  20.8078         93
  20.8264        109
  20.8450         96
  20.8636         91
  20.8821         94
  20.9007         82
  20.9193         84
  20.9379         86
  20.9564         77
  20.9750        108
  20.9936         98
  21.0122         75
  21.0307        106
  21.0493         88
  21.0679        109
  21.0865         97
  21.1050         93
  21.1236        107
  21.1422        110
  21.1608        116
  21.1793        121
  21.1979        147
  21.2165        158
  21.2351        157
  21.2537        134
  21.2722        130
  21.2908        159
  21.3094        157
  21.3280        179
  21.3465        241
  21.3651        261
  21.3837        239
  21.4023        193
  21.4208        175
  21.4394        126
  21.4580        115
  21.4766        106
  21.4951        113
  21.5137        107
  21.5323         84
  21.5509        105
  21.5694         88
  21.5880         97
  21.6066        111
  21.6252         92
  21.6437        109
  21.6623         90
  21.6809         96
  21.6995        115
  21.7180        110
  21.7366         87
  21.7552         98
  21.7738         94
  21.7923         77
  21.8109        103
  21.8295         82
  21.8481         88
  21.8666         92
  21.8852        102
  21.9038         88
  21.9224         88
  21.9409         94
  21.9595        105
  21.9781        108
  21.9967         99
  22.0152        100
  22.0338         83
  22.0524        106
  22.0710        113
  22.0896        113
  22.1081         89
  22.1267        103
  22.1453         97
  22.1639         91
  22.1824         91
  22.2010        100
  22.2196        112
  22.2382        115
  22.2567         89
  22.2753         97
  22.2939         91
  22.3125         89
  22.3310         87
  22.3496        100
  22.3682         82
  22.3868         89
  22.4053        104
  22.4239         93
  22.4425         86
  22.4611         92
  22.4796         92
  22.4982         80
  22.5168         96
  22.5354         87
  22.5539         95
  22.5725         92
  22.5911         85
  22.6097         94
  22.6282         97
  22.6468         92
  22.6654         89
  22.6840         93
  22.7025        100
  22.7211        103
  22.7397         94
  22.7583         97
  22.7768        100
  22.7954        120
  22.8140         82
  22.8326         88
  22.8512        101
  22.8697         87
  22.8883        114
  22.9069         91
  22.9255         92
  22.9440         95
  22.9626         95
  22.9812        111
  22.9998         90
  23.0183         92
  23.0369         88
  23.0555         94
  23.0741        113
  23.0926         76
  23.1112        112
  23.1298         82
  23.1484         86
  23.1669        103
  23.1855         81
  23.2041         95
  23.2227        103
  23.2412        101
  23.2598         85
  23.2784         95
  23.2970         84
  23.3155        100
  23.3341        102
  23.3527        102
  23.3713         85
  23.3898         91
  23.4084        110
  23.4270         88
  23.4456        108
  23.4641         98
  23.4827         90
  23.5013         94
  23.5199        109
  23.5384         86
  23.5570        103
  23.5756         95
  23.5942        108
  23.6128         85
  23.6313         95
  23.6499         88
  23.6685         96
  23.6871         87
  23.7056         94
  23.7242        126
  23.7428         77
  23.7614         87
  23.7799        112
  23.7985         96
  23.8171        105
  23.8357        128
  23.8542        104
  23.8728         87
  23.8914         96
  23.9100         99
  23.9285         87
  23.9471        111
  23.9657         96
  23.9843         89
  24.0028         99
  24.0214        100
  24.0400        101
  24.0586         94
  24.0771         82
  24.0957         93
  24.1143         85
  24.1329        102
  24.1514        117
  24.1700        102
  24.1886         88
  24.2072         91
  24.2257        109
  24.2443        118
  24.2629        106
  24.2815        116
  24.3000        102
  24.3186        107
  24.3372        106
  24.3558        102
  24.3744         97
  24.3929        100
  24.4115        121
  24.4301        121
  24.4487         96
  24.4672         86
  24.4858         84
  24.5044        102
  24.5230         76
  24.5415        103
  24.5601         99
  24.5787        114
  24.5973         93
  24.6158        113
  24.6344        110
  24.6530         95
  24.6716         98
  24.6901         91
  24.7087         91
  24.7273         85
  24.7459        115
  24.7644         83
  24.7830         85
  24.8016        109
  24.8202        101
  24.8387         71
  24.8573         87
  24.8759         85
  24.8945         79
  24.9130        102
  24.9316         84
  24.9502         94
  24.9688        108
  24.9873         88
  25.0059         89
  25.0245         81
  25.0431         90
  25.0616        116
  25.0802         97
  25.0988        104
  25.1174        100
  25.1360         96
  25.1545         96
  25.1731         89
  25.1917         89
  25.2103         98
  25.2288         96
  25.2474        102
  25.2660         86
  25.2846        107
  25.3031         93
  25.3217        116
  25.3403         97
  25.3589         94
  25.3774         99
  25.3960         99
  25.4146         99
  25.4332         86
  25.4517         90
  25.4703        100
  25.4889        110
  25.5075        102
  25.5260        101
  25.5446         91
  25.5632         89
  25.5818        112
  25.6003         95
  25.6189        117
  25.6375         95
  25.6561         98
  25.6746        108
  25.6932         86
  25.7118         86
  25.7304         88
  25.7489         86
  25.7675        110
  25.7861         93
  25.8047         83
  25.8232        103
  25.8418        109
  25.8604         95
  25.8790         88
  25.8976        100
  25.9161         93
  25.9347         84
  25.9533         94
  25.9719         90
  25.9904         99
  26.0090         97
  26.0276         91
  26.0462         89
  26.0647         80
  26.0833         91
  26.1019         90
  26.1205         97
  26.1390        100
  26.1576        106
  26.1762         85
  26.1948         92
  26.2133         92
  26.2319         84
  26.2505         88
  26.2691         91
  26.2876        108
  26.3062         88
  26.3248         95
  26.3434         83
  26.3619        103
  26.3805         89
  26.3991        100
  26.4177         98
  26.4362         95
  26.4548         77
  26.4734         98
  26.4920         92
  26.5105         90
  26.5291        100
  26.5477        115
  26.5663         90
  26.5848         99
  26.6034         97
  26.6220         71
  26.6406         90
  26.6591         92
  26.6777         90
  26.6963         90
  26.7149         78
  26.7335         77
  26.7520         89
  26.7706         92
  26.7892         90
  26.8078         89
  26.8263         85
  26.8449         85
  26.8635         83
  26.8821         77
  26.9006        111
  26.9192         88
  26.9378         89
  26.9564         92
  26.9749         96
  26.9935         94
  27.0121         90
  27.0307         85
  27.0492        105
  27.0678        104
  27.0864         96
  27.1050         85
  27.1235         98
  27.1421         97
  27.1607         84
  27.1793        117
  27.1978        109
  27.2164        119
  27.2350        128
  27.2536        107
  27.2721        101
  27.2907         75
  27.3093         90
  27.3279         91
  27.3464         92
  27.3650         83
  27.3836         88
  27.4022        109
  27.4207         79
  27.4393         88
  27.4579         92
  27.4765         80
  27.4951         95
  27.5136         80
  27.5322         81
  27.5508         79
  27.5694         94
  27.5879         77
  27.6065         82
  27.6251         89
  27.6437         71
  27.6622         78
  27.6808         95
  27.6994         96
  27.7180         68
  27.7365         85
  27.7551         89
  27.7737         94
  27.7923         71
  27.8108         85
  27.8294         84
  27.8480         98
  27.8666         80
  27.8851         97
  27.9037         94
  27.9223         83
  27.9409         69
  27.9594         83
  27.9780         95
  27.9966         83
  28.0152         90
  28.0337         72
  28.0523         95
  28.0709         95
  28.0895         76
  28.1080         91
  28.1266         93
  28.1452         64
  28.1638         77
  28.1823         79
  28.2009         86
  28.2195         85
  28.2381         76
  28.2567         90
  28.2752         86
  28.2938         82
  28.3124         90
  28.3310         86
  28.3495         73
  28.3681         89
  28.3867         77
  28.4053         72
  28.4238         68
  28.4424         82
  28.4610         60
  28.4796         89
  28.4981         94
  28.5167         82
  28.5353         78
  28.5539         83
  28.5724         83
  28.5910         95
  28.6096         80
  28.6282         94
  28.6467         75
  28.6653         79
  28.6839         84
  28.7025         75
  28.7210         88
  28.7396         82
  28.7582         63
  28.7768         88
  28.7953         75
  28.8139         84
  28.8325         85
  28.8511         78
  28.8696         78
  28.8882         78
  28.9068         90
  28.9254         91
  28.9439         78
  28.9625         77
  28.9811         81
  28.9997        102
  29.0183         89
  29.0368         87
  29.0554         84
  29.0740         79
  29.0926         80
  29.1111         95
  29.1297         83
  29.1483         76
  29.1669         78
  29.1854         82
  29.2040         74
  29.2226         75
  29.2412         75
  29.2597         81
  29.2783         74
  29.2969         76
  29.3155         89
  29.3340         92
  29.3526         94
  29.3712         90
  29.3898         76
  29.4083         99
  29.4269         71
  29.4455        102
  29.4641         65
  29.4826         86
  29.5012         85
  29.5198         85
  29.5384         77
  29.5569         83
  29.5755         66
  29.5941         70
  29.6127         80
  29.6312         72
  29.6498         71
  29.6684         80
  29.6870         80
  29.7055         83
  29.7241         76
  29.7427         88
  29.7613         87
  29.7799         70
  29.7984         80
  29.8170         74
  29.8356         92
  29.8542         70
  29.8727         74
  29.8913         76
  29.9099         79
  29.9285         77
  29.9470         72
  29.9656         79
  29.9842         79
  30.0028         84
  30.0213         74
  30.0399         76
  30.0585         70
  30.0771         85
  30.0956         84
  30.1142         84
  30.1328         64
  30.1514         76
  30.1699         77
  30.1885         70
  30.2071         77
  30.2257         75
  30.2442         66
  30.2628         78
  30.2814         90
  30.3000         84
  30.3185         80
  30.3371         77
  30.3557        100
  30.3743        158
  30.3928        174
  30.4114        151
  30.4300        109
  30.4486        117
  30.4671        141
  30.4857        106
  30.5043         92
  30.5229         93
  30.5415         87
  30.5600         82
  30.5786         57
  30.5972         92
  30.6158         75
  30.6343         77
  30.6529         79
  30.6715         71
  30.6901         68
  30.7086         74
  30.7272         71
  30.7458         57
  30.7644         59
  30.7829         69
  30.8015         81
  30.8201         71
  30.8387         78
  30.8572         77
  30.8758         76
  30.8944         61
  30.9130         67
  30.9315         67
  30.9501         61
  30.9687         75
  30.9873         67
  31.0058         61
  31.0244         72
  31.0430         77
  31.0616         70
  31.0801         57
  31.0987         68
  31.1173         64
  31.1359         69
  31.1544         64
  31.1730         80
  31.1916         61
  31.2102         65
  31.2287         81
  31.2473         70
  31.2659         87
  31.2845         63
  31.3030         69
  31.3216         73
  31.3402         70
  31.3588         69
  31.3774         67
  31.3959         78
  31.4145         66
  31.4331         62
  31.4517         57
  31.4702         58
  31.4888         60
  31.5074         87
  31.5260         50
  31.5445         70
  31.5631         58
  31.5817         58
  31.6003         61
  31.6188         53
  31.6374         65
  31.6560         71
  31.6746         53
  31.6931         63
  31.7117         66
  31.7303         58
  31.7489         67
  31.7674         59
  31.7860         63
  31.8046         73
  31.8232         63
  31.8417         59
  31.8603         57
  31.8789         83
  31.8975         67
  31.9160         67
  31.9346         64
  31.9532         66
  31.9718         61
  31.9903         70
  32.0089         61
  32.0275         76
  32.0461         69
  32.0646         64
  32.0832         67
  32.1018         62
  32.1204         65
  32.1390         65
  32.1575         53
  32.1761         67
  32.1947         61
  32.2133         65
  32.2318         73
  32.2504         62
  32.2690         61
  32.2876         68
  32.3061         69
  32.3247         73
  32.3433         58
  32.3619         53
  32.3804         66
  32.3990         64
  32.4176         74
  32.4362         67
  32.4547         72
  32.4733         66
  32.4919         90
  32.5105         84
  32.5290         78
  32.5476         69
  32.5662         78
  32.5848         65
  32.6033         60
  32.6219         67
  32.6405         73
  32.6591         66
  32.6776         55
  32.6962         61
  32.7148         46
  32.7334         71
  32.7519         70
  32.7705         55
  32.7891         45
  32.8077         60
  32.8262         53
  32.8448         54
  32.8634         67
  32.8820         57
  32.9006         66
  32.9191         72
  32.9377         66
  32.9563         51
  32.9749         56
  32.9934         57
  33.0120         68
  33.0306         76
  33.0492         62
  33.0677         56
  33.0863         47
  33.1049         53
  33.1235         59
  33.1420         60
  33.1606         58
  33.1792         59
  33.1978         57
  33.2163         54
  33.2349         52
  33.2535         55
  33.2721         64
  33.2906         59
  33.3092         50
  33.3278         44
  33.3464         57
  33.3649         67
  33.3835         57
  33.4021         61
  33.4207         58
  33.4392         48
  33.4578         71
  33.4764         58
  33.4950         64
  33.5135         57
  33.5321         45
  33.5507         61
  33.5693         53
  33.5878         69
  33.6064         54
  33.6250         63
  33.6436         48
  33.6622         62
  33.6807         51
  33.6993         60
  33.7179         56
  33.7365         58
  33.7550         44
  33.7736         73
  33.7922         69
  33.8108         67
  33.8293         60
  33.8479         54
  33.8665         47
  33.8851         52
  33.9036         50
  33.9222         57
  33.9408         55
  33.9594         60
  33.9779         57
  33.9965         61
  34.0151         52
  34.0337         63
  34.0522         35
  34.0708         56
  34.0894         49
  34.1080         51
  34.1265         40
  34.1451         52
  34.1637         60
  34.1823         65
  34.2008         49
  34.2194         74
  34.2380         55
  34.2566         57
  34.2751         68
  34.2937         51
  34.3123         64
  34.3309         57
  34.3494         46
  34.3680         57
  34.3866         54
  34.4052         60
  34.4238         50
  34.4423         53
  34.4609         55
  34.4795         57
  34.4981         58
  34.5166         61
  34.5352         65
  34.5538         62
  34.5724         63
  34.5909         50
  34.6095         55
  34.6281         68
  34.6467         64
  34.6652         60
  34.6838         79
  34.7024         62
  34.7210         74
  34.7395         63
  34.7581         73
  34.7767         87
  34.7953         78
  34.8138         71
  34.8324         68
  34.8510         63
  34.8696         61
  34.8881         56
  34.9067         64
  34.9253         56
  34.9439         53
  34.9624         53
  34.9810         58
  34.9996         54
  35.0182         44
  35.0367         51
  35.0553         50
  35.0739         43
  35.0925         60
  35.1110         46
  35.1296         61
  35.1482         45
  35.1668         52
  35.1854         41
  35.2039         62
  35.2225         56
  35.2411         54
  35.2597         55
  35.2782         51
  35.2968         47
  35.3154         54
  35.3340         59
  35.3525         62
  35.3711         59
  35.3897         41
  35.4083         63
  35.4268         44
  35.4454         56
  35.4640         47
  35.4826         49
  35.5011         55
  35.5197         45
  35.5383         42
  35.5569         45
  35.5754         49
  35.5940         52
  35.6126         49
  35.6312         60
  35.6497         41
  35.6683         43
  35.6869         55
  35.7055         42
  35.7240         38
  35.7426         49
  35.7612         43
  35.7798         53
  35.7983         59
  35.8169         43
  35.8355         50
  35.8541         53
  35.8726         56
  35.8912         40
  35.9098         39
  35.9284         39
  35.9469         50
  35.9655         42
  35.9841         50
  36.0027         42
  36.0213         47
  36.0398         44
  36.0584         36
  36.0770         50
  36.0956         45
  36.1141         46
  36.1327         40
  36.1513         48
  36.1699         52
  36.1884         46
  36.2070         43
  36.2256         45
  36.2442         37
  36.2627         50
  36.2813         40
  36.2999         47
  36.3185         45
  36.3370         40
  36.3556         53
  36.3742         44
  36.3928         39
  36.4113         46
  36.4299         51
  36.4485         42
  36.4671         45
  36.4856         46
  36.5042         35
  36.5228         39
  36.5414         53
  36.5599         44
  36.5785         43
  36.5971         40
  36.6157         46
  36.6342         47
  36.6528         44
  36.6714         48
  36.6900         43
  36.7085         39
  36.7271         33
  36.7457         56
  36.7643         40
  36.7829         50
  36.8014         52
  36.8200         53
  36.8386         45
  36.8572         49
  36.8757         51
  36.8943         47
  36.9129         49
  36.9315         57
  36.9500         35
  36.9686         36
  36.9872         42
  37.0058         54
  37.0243         43
  37.0429         49
  37.0615         40
  37.0801         49
  37.0986         43
  37.1172         39
  37.1358         37
  37.1544         48
  37.1729         52
  37.1915         43
  37.2101         41
  37.2287         63
  37.2472         41
  37.2658         42
  37.2844         52
  37.3030         45
  37.3215         51
  37.3401         44
  37.3587         45
  37.3773         52
  37.3958         60
  37.4144         59
  37.4330         74
  37.4516         88
  37.4701         68
  37.4887         54
  37.5073         61
  37.5259         69
  37.5445         61
  37.5630         61
  37.5816         58
  37.6002         42
  37.6188         59
  37.6373         40
  37.6559         36
  37.6745         45
  37.6931         35
  37.7116         45
  37.7302         47
  37.7488         42
  37.7674         43
  37.7859         44
  37.8045         37
  37.8231         38
  37.8417         31
  37.8602         36
  37.8788         45
  37.8974         43
  37.9160         41
  37.9345         32
  37.9531         48
  37.9717         45
  37.9903         52
  38.0088         36
  38.0274         59
  38.0460         45
  38.0646         41
  38.0831         38
  38.1017         41
  38.1203         56
  38.1389         57
  38.1574         40
  38.1760         31
  38.1946         52
  38.2132         53
  38.2317         38
  38.2503         37
  38.2689         46
  38.2875         42
  38.3061         51
  38.3246         38
  38.3432         33
  38.3618         44
  38.3804         48
  38.3989         45
  38.4175         35
  38.4361         49
  38.4547         38
  38.4732         37
  38.4918         38
  38.5104         47
  38.5290         37
  38.5475         33
  38.5661         31
  38.5847         36
  38.6033         41
  38.6218         41
  38.6404         35
  38.6590         38
  38.6776         38
  38.6961         37
  38.7147         43
  38.7333         38
  38.7519         43
  38.7704         44
  38.7890         49
  38.8076         34
  38.8262         49
  38.8447         42
  38.8633         49
  38.8819         49
  38.9005         56
  38.9190         55
  38.9376         42
  38.9562         40
  38.9748         29
  38.9933         41
  39.0119         37
  39.0305         30
  39.0491         38
  39.0677         45
  39.0862         32
  39.1048         36
  39.1234         36
  39.1420         45
  39.1605         30
  39.1791         33
  39.1977         39
  39.2163         39
  39.2348         34
  39.2534         31
  39.2720         41
  39.2906         32
  39.3091         40
  39.3277         27
  39.3463         31
  39.3649         36
  39.3834         36
  39.4020         41
  39.4206         24
  39.4392         36
  39.4577         37
  39.4763         33
  39.4949         43
  39.5135         33
  39.5320         32
  39.5506         39
  39.5692         42
  39.5878         40
  39.6063         35
  39.6249         44
  39.6435         48
  39.6621         36
  39.6806         45
  39.6992         44
  39.7178         30
  39.7364         40
  39.7549         43
  39.7735         36
  39.7921         28
  39.8107         36
  39.8293         38
  39.8478         37
  39.8664         42
  39.8850         32
  39.9036         27
  39.9221         29
  39.9407         34
  39.9593         34
  39.9779         39
  39.9964         44
  40.0150         51
  40.0336         45
  40.0522         35
  40.0707         48
  40.0893         34
  40.1079         32
  40.1265         40
  40.1450         39
  40.1636         40
  40.1822         38
  40.2008         36
  40.2193         39
  40.2379         33
  40.2565         41
  40.2751         40
  40.2936         36
  40.3122         35
  40.3308         41
  40.3494         34
  40.3679         32
  40.3865         38
  40.4051         29
  40.4237         37
  40.4422         35
  40.4608         48
  40.4794         28
  40.4980         36
  40.5165         43
  40.5351         49
  40.5537         59
  40.5723         41
  40.5908         36
  40.6094         31
  40.6280         39
  40.6466         41
  40.6652         37
  40.6837         36
  40.7023         44
  40.7209         31
  40.7395         49
  40.7580         39
  40.7766         39
  40.7952         47
  40.8138         33
  40.8323         33
  40.8509         37
  40.8695         31
  40.8881         34
  40.9066         40
  40.9252         39
  40.9438         35
  40.9624         35
  40.9809         33
  40.9995         48
  41.0181         36
  41.0367         52
  41.0552         34
  41.0738         41
  41.0924         36
  41.1110         40
  41.1295         41
  41.1481         34
  41.1667         45
  41.1853         28
  41.2038         46
  41.2224         43
  41.2410         46
  41.2596         37
  41.2781         31
  41.2967         39
  41.3153         36
  41.3339         42
  41.3524         33
  41.3710         36
  41.3896         33
  41.4082         32
  41.4268         42
  41.4453         35
  41.4639         38
  41.4825         43
  41.5011         39
  41.5196         33
  41.5382         28
  41.5568         35
  41.5754         34
  41.5939         34
  41.6125         29
  41.6311         47
  41.6497         34
  41.6682         25
  41.6868         30
  41.7054         39
  41.7240         29
  41.7425         32
  41.7611         37
  41.7797         28
  41.7983         37
  41.8168         37
  41.8354         32
  41.8540         42
  41.8726         43
  41.8911         35
  41.9097         45
  41.9283         39
  41.9469         35
  41.9654         44
  41.9840         44
  42.0026         35
  42.0212         34
  42.0397         41
  42.0583         34
  42.0769         49
  42.0955         35
  42.1140         39
  42.1326         41
  42.1512         49
  42.1698         30
  42.1884         41
  42.2069         32
  42.2255         26
  42.2441         35
  42.2627         34
  42.2812         27
  42.2998         38
  42.3184         36
  42.3370         27
  42.3555         40
  42.3741         39
  42.3927         60
  42.4113         35
  42.4298         52
  42.4484         36
  42.4670         32
  42.4856         44
  42.5041         30
  42.5227         39
  42.5413         37
  42.5599         34
  42.5784         24
  42.5970         33
  42.6156         47
  42.6342         41
  42.6527         49
  42.6713         38
  42.6899         39
  42.7085         35
  42.7270         39
  42.7456         35
  42.7642         43
  42.7828         33
  42.8013         43
  42.8199         32
  42.8385         33
  42.8571         44
  42.8756         27
  42.8942         40
  42.9128         41
  42.9314         42
  42.9500         41
  42.9685         40
  42.9871         41
  43.0057         35
  43.0243         39
  43.0428         33
  43.0614         28
  43.0800         27
  43.0986         36
  43.1171         40
  43.1357         43
  43.1543         34
  43.1729         42
  43.1914         43
  43.2100         42
  43.2286         59
  43.2472         45
  43.2657         42
  43.2843         41
  43.3029         40
  43.3215         43
  43.3400         47
  43.3586         47
  43.3772         36
  43.3958         35
  43.4143         40
  43.4329         51
  43.4515         44
  43.4701         55
  43.4886         53
  43.5072         79
  43.5258         61
  43.5444         36
  43.5629         43
  43.5815         34
  43.6001         43
  43.6187         46
  43.6372         44
  43.6558         31
  43.6744         37
  43.6930         37
  43.7116         37
  43.7301         38
  43.7487         50
  43.7673         39
  43.7859         34
  43.8044         30
  43.8230         37
  43.8416         35
  43.8602         43
  43.8787         42
  43.8973         34
  43.9159         35
  43.9345         34
  43.9530         33
  43.9716         36
  43.9902         36
  44.0088         36
  44.0273         40
  44.0459         34
  44.0645         35
  44.0831         27
  44.1016         34
  44.1202         39
  44.1388         51
  44.1574         45
  44.1759         43
  44.1945         40
  44.2131         24
  44.2317         35
  44.2502         34
  44.2688         28
  44.2874         31
  44.3060         36
  44.3245         39
  44.3431         31
  44.3617         30
  44.3803         44
  44.3988         37
  44.4174         26
  44.4360         32
  44.4546         34
  44.4732         29
  44.4917         34
  44.5103         42
  44.5289         39
  44.5475         31
  44.5660         42
  44.5846         34
  44.6032         26
  44.6218         49
  44.6403         34
  44.6589         38
  44.6775         41
  44.6961         39
  44.7146         29
  44.7332         31
  44.7518         36
  44.7704         34
  44.7889         31
  44.8075         32
  44.8261         40
  44.8447         30
  44.8632         36
  44.8818         36
  44.9004         36
  44.9190         36
  44.9375         36
  44.9561         24
  44.9747         33
  44.9933         35
  45.0118         40
  45.0304         28
  45.0490         32
  45.0676         30
  45.0861         34
  45.1047         42
  45.1233         34
  45.1419         35
  45.1604         44
  45.1790         24
  45.1976         29
  45.2162         39
  45.2347         36
  45.2533         32
  45.2719         37
  45.2905         25
  45.3091         37
  45.3276         42
  45.3462         43
  45.3648         30
  45.3834         30
  45.4019         27
  45.4205         31
  45.4391         38
  45.4577         32
  45.4762         37
  45.4948         31
  45.5134         32
  45.5320         28
  45.5505         38
  45.5691         35
  45.5877         29
  45.6063         36
  45.6248         26
  45.6434         32
  45.6620         26
  45.6806         34
  45.6991         39
  45.7177         26
  45.7363         36
  45.7549         40
  45.7734         27
  45.7920         25
  45.8106         34
  45.8292         32
  45.8477         28
  45.8663         21
  45.8849         39
  45.9035         32
  45.9220         32
  45.9406         28
  45.9592         40
  45.9778         33
  45.9963         39
  46.0149         34
  46.0335         44
  46.0521         21
  46.0707         38
  46.0892         33
  46.1078         32
  46.1264         38
  46.1450         42
  46.1635         39
  46.1821         31
  46.2007         28
  46.2193         31
  46.2378         40
  46.2564         32
  46.2750         35
  46.2936         34
  46.3121         33
  46.3307         38
  46.3493         33
  46.3679         34
  46.3864         39
  46.4050         30
  46.4236         36
  46.4422         31
  46.4607         28
  46.4793         30
  46.4979         29
  46.5165         32
  46.5350         29
  46.5536         36
  46.5722         28
  46.5908         26
  46.6093         28
  46.6279         30
  46.6465         38
  46.6651         25
  46.6836         32
  46.7022         25
  46.7208         28
  46.7394         27
  46.7579         29
  46.7765         25
  46.7951         21
  46.8137         28
  46.8323         34
  46.8508         34
  46.8694         27
  46.8880         31
  46.9066         23
  46.9251         31
  46.9437         28
  46.9623         41
  46.9809         40
  46.9994         41
  47.0180         39
  47.0366         37
  47.0552         32
  47.0737         25
  47.0923         35
  47.1109         33
  47.1295         43
  47.1480         27
  47.1666         38
  47.1852         35
  47.2038         18
  47.2223         26
  47.2409         31
  47.2595         22
  47.2781         36
  47.2966         36
  47.3152         33
  47.3338         26
  47.3524         25
  47.3709         29
  47.3895         33
  47.4081         27
  47.4267         27
  47.4452         31
  47.4638         29
  47.4824         30
  47.5010         36
  47.5195         21
  47.5381         37
  47.5567         33
  47.5753         26
  47.5939         39
  47.6124         28
  47.6310         21
  47.6496         41
  47.6682         43
  47.6867         32
  47.7053         27
  47.7239         36
  47.7425         42
  47.7610         34
  47.7796         29
  47.7982         40
  47.8168         26
  47.8353         27
  47.8539         34
  47.8725         29
  47.8911         27
  47.9096         36
  47.9282         39
  47.9468         28
  47.9654         33
  47.9839         38
  48.0025         36
  48.0211         26
  48.0397         28
  48.0582         35
  48.0768         26
  48.0954         27
  48.1140         31
  48.1325         26
  48.1511         32
  48.1697         21
  48.1883         18
  48.2068         24
  48.2254         29
  48.2440         27
  48.2626         25
  48.2811         36
  48.2997         32
  48.3183         29
  48.3369         24
  48.3555         30
  48.3740         34
  48.3926         27
  48.4112         34
  48.4298         35
  48.4483         23
  48.4669         25
  48.4855         33
  48.5041         27
  48.5226         27
  48.5412         34
  48.5598         32
  48.5784         33
  48.5969         30
  48.6155         39
  48.6341         28
  48.6527         31
  48.6712         28
  48.6898         22
  48.7084         25
  48.7270         29
  48.7455         34
  48.7641         40
  48.7827         34
  48.8013         30
  48.8198         35
  48.8384         27
  48.8570         35
  48.8756         27
  48.8941         40
  48.9127         39
  48.9313         37
  48.9499         55
  48.9684         73
  48.9870         59
  49.0056         44
  49.0242         37
  49.0427         29
  49.0613         53
  49.0799         49
  49.0985         40
  49.1171         42
  49.1356         38
  49.1542         37
  49.1728         43
  49.1914         30
  49.2099         44
  49.2285         31
  49.2471         36
  49.2657         22
  49.2842         38
  49.3028         22
  49.3214         42
  49.3400         38
  49.3585         33
  49.3771         39
  49.3957         35
  49.4143         32
  49.4328         29
  49.4514         33
  49.4700         27
  49.4886         37
  49.5071         29
  49.5257         30
  49.5443         25
  49.5629         21
  49.5814         37
  49.6000         30
  49.6186         37
  49.6372         34
  49.6557         32
  49.6743         33
  49.6929         33
  49.7115         34
  49.7300         26
  49.7486         27
  49.7672         26
  49.7858         31
  49.8043         47
  49.8229         26
  49.8415         28
  49.8601         29
  49.8786         34
  49.8972         30
  49.9158         33
  49.9344         31
  49.9530         21
  49.9715         33
  49.9901         30
  50.0087         29
  50.0273         32
  50.0458         38
  50.0644         31
  50.0830         24
  50.1016         27
  50.1201         37
  50.1387         29
  50.1573         21
  50.1759         23
  50.1944         23
  50.2130         21
  50.2316         25
  50.2502         33
  50.2687         36
  50.2873         33
  50.3059         26
  50.3245         22
  50.3430         38
  50.3616         23
  50.3802         27
  50.3988         33
  50.4173         12
  50.4359         30
  50.4545         31
  50.4731         22
  50.4916         30
  50.5102         32
  50.5288         28
  50.5474         26
  50.5659         29
  50.5845         30
  50.6031         26
  50.6217         41
  50.6402         28
  50.6588         26
  50.6774         31
  50.6960         22
  50.7146         29
  50.7331         24
  50.7517         18
  50.7703         36
  50.7889         34
  50.8074         33
  50.8260         25
  50.8446         26
  50.8632         24
  50.8817         34
  50.9003         26
  50.9189         33
  50.9375         26
  50.9560         29
  50.9746         27
  50.9932         39
  51.0118         36
  51.0303         28
  51.0489         38
  51.0675         29
  51.0861         24
  51.1046         32
  51.1232         36
  51.1418         32
  51.1604         31
  51.1789         25
  51.1975         27
  51.2161         31
  51.2347         32
  51.2532         29
  51.2718         34
  51.2904         23
  51.3090         30
  51.3275         37
  51.3461         30
  51.3647         23
  51.3833         29
  51.4018         33
  51.4204         29
  51.4390         43
  51.4576         30
  51.4762         21
  51.4947         32
  51.5133         29
  51.5319         33
  51.5505         37
  51.5690         25
  51.5876         40
  51.6062         35
  51.6248         20
  51.6433         34
  51.6619         26
  51.6805         41
  51.6991         25
  51.7176         27
  51.7362         36
  51.7548         17
  51.7734         37
  51.7919         30
  51.8105         31
  51.8291         32
  51.8477         35
  51.8662         30
  51.8848         36
  51.9034         22
  51.9220         19
  51.9405         35
  51.9591         37
  51.9777         24
  51.9963         25
  52.0148         35
  52.0334         30
  52.0520         31
  52.0706         24
  52.0891         37
  52.1077         27
  52.1263         35
  52.1449         22
  52.1634         27
  52.1820         27
  52.2006         29
  52.2192         26
  52.2378         29
  52.2563         34
  52.2749         22
  52.2935         19
  52.3121         29
  52.3306         22
  52.3492         34
  52.3678         27
  52.3864         24
  52.4049         34
  52.4235         26
  52.4421         27
  52.4607         22
  52.4792         30
  52.4978         17
  52.5164         19
  52.5350         31
  52.5535         31
  52.5721         25
  52.5907         25
  52.6093         22
  52.6278         22
  52.6464         30
  52.6650         18
  52.6836         24
  52.7021         30
  52.7207         29
  52.7393         37
  52.7579         18
  52.7764         26
  52.7950         31
  52.8136         29
  52.8322         22
  52.8507         22
  52.8693         22
  52.8879         23
  52.9065         26
  52.9250         30
  52.9436         24
  52.9622         30
  52.9808         31
  52.9994         31
  53.0179         33
  53.0365         26
  53.0551         22
  53.0737         34
  53.0922         28
  53.1108         23
  53.1294         32
  53.1480         29
  53.1665         21
  53.1851         34
  53.2037         31
  53.2223         38
  53.2408         24
  53.2594         25
  53.2780         23
  53.2966         22
  53.3151         29
  53.3337         30
  53.3523         28
  53.3709         22
  53.3894         23
  53.4080         26
  53.4266         34
  53.4452         36
  53.4637         29
  53.4823         25
  53.5009         35
  53.5195         30
  53.5380         31
  53.5566         24
  53.5752         29
  53.5938         25
  53.6123         27
  53.6309         20
  53.6495         31
  53.6681         33
  53.6866         19
  53.7052         28
  53.7238         26
  53.7424         21
  53.7610         30
  53.7795         20
  53.7981         33
  53.8167         33
  53.8353         22
  53.8538         31
  53.8724         27
  53.8910         34
  53.9096         35
  53.9281         35
  53.9467         31
  53.9653         39
  53.9839         44
  54.0024         42
  54.0210         35
  54.0396         24
  54.0582         38
  54.0767         26
  54.0953         27
  54.1139         34
  54.1325         29
  54.1510         38
  54.1696         37
  54.1882         35
  54.2068         28
  54.2253         37
  54.2439         32
  54.2625         34
  54.2811         21
  54.2996         27
  54.3182         30
  54.3368         23
  54.3554         24
  54.3739         26
  54.3925         30
  54.4111         29
  54.4297         32
  54.4482         34
  54.4668         31
  54.4854         23
  54.5040         16
  54.5225         24
  54.5411         21
  54.5597         25
  54.5783         15
  54.5969         25
  54.6154         30
  54.6340         29
  54.6526         33
  54.6712         25
  54.6897         19
  54.7083         32
  54.7269         31
  54.7455         35
  54.7640         26
  54.7826         35
  54.8012         30
  54.8198         24
  54.8383         18
  54.8569         23
  54.8755         23
  54.8941         23
  54.9126         30
  54.9312         26
  54.9498         23
  54.9684         28
  54.9869         24
  55.0055         29
  55.0241         20
  55.0427         30
  55.0612         29
  55.0798         33
  55.0984         23
  55.1170         36
  55.1355         30
  55.1541         24
  55.1727         30
  55.1913         23
  55.2098         20
  55.2284         28
  55.2470         25
  55.2656         32
  55.2841         25
  55.3027         37
  55.3213         24
  55.3399         24
  55.3585         23
  55.3770         29
  55.3956         24
  55.4142         27
  55.4328         20
  55.4513         26
  55.4699         19
  55.4885         29
  55.5071         26
  55.5256         26
  55.5442         21
  55.5628         28
  55.5814         27
  55.5999         24
  55.6185         27
  55.6371         24
  55.6557         28
  55.6742         27
  55.6928         30
  55.7114         26
  55.7300         30
  55.7485         31
  55.7671         20
  55.7857         40
  55.8043         28
  55.8228         23
  55.8414         26
  55.8600         25
  55.8786         35
  55.8971         20
  55.9157         28
  55.9343         26
  55.9529         23
  55.9714         25
  55.9900         21
  56.0086         21
  56.0272         24
  56.0457         27
  56.0643         20
  56.0829         29
  56.1015         26
  56.1201         26
  56.1386         23
  56.1572         24
  56.1758         32
  56.1944         26
  56.2129         34
  56.2315         36
  56.2501         33
  56.2687         30
  56.2872         34
  56.3058         39
  56.3244         25
  56.3430         31
  56.3615         34
  56.3801         18
  56.3987         35
  56.4173         18
  56.4358         31
  56.4544         25
  56.4730         35
  56.4916         25
  56.5101         22
  56.5287         35
  56.5473         32
  56.5659         37
  56.5844         26
  56.6030         30
  56.6216         25
  56.6402         24
  56.6587         24
  56.6773         28
  56.6959         27
  56.7145         22
  56.7330         28
  56.7516         21
  56.7702         28
  56.7888         13
  56.8073         37
  56.8259         15
  56.8445         22
  56.8631         35
  56.8817         22
  56.9002         27
  56.9188         18
  56.9374         20
  56.9560         23
  56.9745         31
  56.9931         25
  57.0117         31
  57.0303         21
  57.0488         24
  57.0674         29
  57.0860         26
  57.1046         33
  57.1231         29
  57.1417         22
  57.1603         33
  57.1789         29
  57.1974         29
  57.2160         25
  57.2346         19
  57.2532         23
  57.2717         32
  57.2903         27
  57.3089         34
  57.3275         29
  57.3460         25
  57.3646         25
  57.3832         33
  57.4018         25
  57.4203         24
  57.4389         26
  57.4575         25
  57.4761         32
  57.4946         34
  57.5132         21
  57.5318         31
  57.5504         33
  57.5689         33
  57.5875         30
  57.6061         20
  57.6247         34
  57.6433         21
  57.6618         26
  57.6804         26
  57.6990         27
  57.7176         16
  57.7361         24
  57.7547         31
  57.7733         24
  57.7919         25
  57.8104         27
  57.8290         38
  57.8476         27
  57.8662         21
  57.8847         24
  57.9033         21
  57.9219         39
  57.9405         27
  57.9590         15
  57.9776         17
  57.9962         25
  58.0148         22
  58.0333         28
  58.0519         21
  58.0705         22
  58.0891         31
  58.1076         32
  58.1262         30
  58.1448         30
  58.1634         35
  58.1819         31
  58.2005         23
  58.2191         24
  58.2377         21
  58.2562         23
  58.2748         28
  58.2934         20
  58.3120         33
  58.3305         19
  58.3491         24
  58.3677         20
  58.3863         23
  58.4049         23
  58.4234         20
  58.4420         34
  58.4606         18
  58.4792         30
  58.4977         28
  58.5163         17
  58.5349         29
  58.5535         22
  58.5720         26
  58.5906         33
  58.6092         26
  58.6278         26
  58.6463         34
  58.6649         24
  58.6835         22
  58.7021         32
  58.7206         25
  58.7392         23
  58.7578         30
  58.7764         23
  58.7949         23
  58.8135         32
  58.8321         19
  58.8507         33
  58.8692         18
  58.8878         26
  58.9064         35
  58.9250         21
  58.9435         29
  58.9621         32
  58.9807         26
  58.9993         28
  59.0178         24
  59.0364         31
  59.0550         27
  59.0736         29
  59.0921         23
  59.1107         29
  59.1293         32
  59.1479         22
  59.1664         30
  59.1850         24
  59.2036         23
  59.2222         22
  59.2408         32
  59.2593         22
  59.2779         26
  59.2965         27
  59.3151         30
  59.3336         31
  59.3522         23
  59.3708         35
  59.3894         25
  59.4079         25
  59.4265         31
  59.4451         24
  59.4637         18
  59.4822         27
  59.5008         30
  59.5194         33
  59.5380         28
  59.5565         21
  59.5751         31
  59.5937         37
  59.6123         28
  59.6308         41
  59.6494         23
  59.6680         15
  59.6866         15
  59.7051         21
  59.7237         23
  59.7423         33
  59.7609         39
  59.7794         24
  59.7980         20
  59.8166         22
  59.8352         29
  59.8537         24
  59.8723         27
  59.8909         20
  59.9095         20
  59.9280         30
  59.9466         37
  59.9652         26
  59.9838         24
  60.0024         24
