; (content of file Y:\Sam\Apurva-07-20-2022\puck4\ML_20220718_31_SJD_0_LaB6-2min.raw)
_FILEVERSION = 3
_SAMPLE = ML_20220718_31_SJD_0_LaB6-2min
_+SAMPLE = 
_SITE = USA
_USER = Administrator
_GONIOMETER_CODE = 20
; Goniometer : D8 theta/2theta, stage : Unknown
_ATTACHMENTS_CODE = 0
_GONIOMETER_RADIUS = 200.5
_FIXED_DIVSLIT = 0.6
_FIXED_SAMPLESLIT = 0
_SOLLER_SLITS = 2
_FIXED_DETSLIT = 9.55
_MONOCHROMATOR = 0
; Incident beam monochromator : None
_SOLLER_SLITS_2 = N
_THIN_FILM = N
_BETA_FILTER = Y
_FIXED_ANTISLIT = 5.89
_ANALYZER_CODE = 0
; Received beam analyzer : None
_DATEMEASURED = "26-Jul-2022 09:11:14"
_WL_UNIT = A
_WL1 = 1.5406
_WL2 = 1.54439
_WL3 = 1.39222
_WLRATIO = 0.5
_ANODE = Cu
_V4_INF_CREATOR = XRDWizard
_V4_INF_CREATOR_VERSION = V2.9.0.22
_V4_INF_WIZARD_VERSION = V2.9.0.22
_V4_INF_WIZARD_ADDINS = V2.9.0.22
_V4_INF_WIZARD_DOCTYPE = XRD
_V4_INF_OSUSER = McQueenLab
_V4_INF_USER = Administrator
_V4_INF_SITE = USA
_V4_INF_SAMPLEID = ML_20220718_31_SJD_0_LaB6-2min

; Data for range 1
_DRIVE = COUPLED
_STEPTIME = 5.64
_STEPSIZE = 0.0185756
_STEPMODE = C
_START = 5
_THETA = 2.5
_2THETA = 5
_KHI = 0
_PHI = 0
_X = 0
_Y = 0
_Z = 0
_DETECTOR = 5
; Detector type : Unknown
_DETECTORSLIT = unkn
_AUX1 = 0
_AUX2 = 0
_AUX3 = 0
_TIMESTARTED = 15
_TEMP_RATE = -1
_TEMP_DELAY = -1
_KV = 40
_MA = 40
_RANGE_WL = 1.5406
_3DPLANE = 0
_V4_ADDITIONALDETECTOR = 257
_V4_PSD2THETA = 3.4183
_V4_PSDCHANNEL1 = 0
_V4_PSDAPERTURE = 12.68
_V4_PSDTYPE = 5
_V4_PSDFIXED = 0
_V4_COUNTERS_MASK = 4096
_V4_DRIVES_MASK = 0
_V4_ENCODERS_MASK = 0
_2THETACOUNTS = 1
; 2THETA  PSD
   5.0000        119
   5.0186        129
   5.0372        121
   5.0557        126
   5.0743        128
   5.0929        140
   5.1115        117
   5.1300        121
   5.1486        119
   5.1672        132
   5.1858        121
   5.2043        128
   5.2229        119
   5.2415        127
   5.2601        111
   5.2786        125
   5.2972        127
   5.3158        118
   5.3344         91
   5.3529        121
   5.3715         99
   5.3901        123
   5.4087        127
   5.4272        124
   5.4458        112
   5.4644        119
   5.4830        109
   5.5015        103
   5.5201         99
   5.5387         80
   5.5573        102
   5.5758        110
   5.5944        119
   5.6130        126
   5.6316        124
   5.6501        127
   5.6687        119
   5.6873        133
   5.7059        130
   5.7244        105
   5.7430        114
   5.7616        109
   5.7802        102
   5.7988        114
   5.8173         98
   5.8359        123
   5.8545        112
   5.8731        121
   5.8916        103
   5.9102         88
   5.9288        110
   5.9474         92
   5.9659        102
   5.9845         99
   6.0031         89
   6.0217        113
   6.0402        100
   6.0588        114
   6.0774         95
   6.0960         84
   6.1145         99
   6.1331         96
   6.1517        121
   6.1703        110
   6.1888        106
   6.2074         96
   6.2260         75
   6.2446         82
   6.2631         72
   6.2817         91
   6.3003         91
   6.3189        101
   6.3374         90
   6.3560         89
   6.3746         76
   6.3932        105
   6.4117         90
   6.4303         88
   6.4489         70
   6.4675         92
   6.4860         82
   6.5046         94
   6.5232         89
   6.5418         86
   6.5604         96
   6.5789         86
   6.5975         93
   6.6161         95
   6.6347         78
   6.6532         80
   6.6718        103
   6.6904         83
   6.7090         91
   6.7275         89
   6.7461         85
   6.7647         89
   6.7833         89
   6.8018         86
   6.8204        101
   6.8390         80
   6.8576         90
   6.8761         73
   6.8947         70
   6.9133         74
   6.9319         73
   6.9504         75
   6.9690         69
   6.9876         79
   7.0062         87
   7.0247         84
   7.0433         65
   7.0619         92
   7.0805         92
   7.0990         72
   7.1176         67
   7.1362         72
   7.1548         78
   7.1733         96
   7.1919         81
   7.2105         66
   7.2291         92
   7.2476         83
   7.2662         82
   7.2848         98
   7.3034         74
   7.3220        104
   7.3405         87
   7.3591         83
   7.3777         85
   7.3963         86
   7.4148         74
   7.4334         81
   7.4520         80
   7.4706         89
   7.4891         84
   7.5077         85
   7.5263         72
   7.5449         82
   7.5634         80
   7.5820         76
   7.6006         81
   7.6192         91
   7.6377         76
   7.6563         87
   7.6749         69
   7.6935         84
   7.7120         95
   7.7306         95
   7.7492         87
   7.7678         88
   7.7863         80
   7.8049        102
   7.8235         97
   7.8421         98
   7.8606         99
   7.8792         90
   7.8978         91
   7.9164        112
   7.9349         98
   7.9535         84
   7.9721        103
   7.9907        100
   8.0092         97
   8.0278        110
   8.0464         96
   8.0650        109
   8.0835         88
   8.1021         89
   8.1207         99
   8.1393        101
   8.1579         91
   8.1764         90
   8.1950         85
   8.2136         90
   8.2322         80
   8.2507         89
   8.2693         85
   8.2879         91
   8.3065         97
   8.3250         92
   8.3436         96
   8.3622         91
   8.3808         89
   8.3993         94
   8.4179         97
   8.4365        116
   8.4551         91
   8.4736         93
   8.4922        104
   8.5108        104
   8.5294         84
   8.5479        113
   8.5665         81
   8.5851         85
   8.6037         92
   8.6222         99
   8.6408         89
   8.6594        105
   8.6780        109
   8.6965        107
   8.7151         85
   8.7337         95
   8.7523        101
   8.7708        121
   8.7894         94
   8.8080        108
   8.8266        107
   8.8451         84
   8.8637         96
   8.8823         95
   8.9009         92
   8.9195         97
   8.9380         98
   8.9566         96
   8.9752        100
   8.9938        105
   9.0123        126
   9.0309        100
   9.0495         86
   9.0681        121
   9.0866        111
   9.1052        115
   9.1238        121
   9.1424        114
   9.1609         93
   9.1795        106
   9.1981        117
   9.2167        108
   9.2352         96
   9.2538        110
   9.2724        124
   9.2910        110
   9.3095        106
   9.3281         95
   9.3467        103
   9.3653        108
   9.3838         89
   9.4024         97
   9.4210        118
   9.4396         96
   9.4581        122
   9.4767        116
   9.4953        112
   9.5139        112
   9.5324        108
   9.5510        108
   9.5696        113
   9.5882        107
   9.6067        106
   9.6253        108
   9.6439        116
   9.6625        111
   9.6811        109
   9.6996        126
   9.7182        124
   9.7368        111
   9.7554         99
   9.7739        102
   9.7925        125
   9.8111        125
   9.8297        113
   9.8482        102
   9.8668        120
   9.8854        109
   9.9040        121
   9.9225        108
   9.9411        123
   9.9597        118
   9.9783        139
   9.9968        117
  10.0154        142
  10.0340        101
  10.0526        121
  10.0711        126
  10.0897        123
  10.1083        124
  10.1269        122
  10.1454        121
  10.1640        126
  10.1826        114
  10.2012        122
  10.2197        130
  10.2383        116
  10.2569        111
  10.2755        121
  10.2940        115
  10.3126        117
  10.3312        106
  10.3498        133
  10.3683        131
  10.3869        130
  10.4055        142
  10.4241        124
  10.4427        118
  10.4612        117
  10.4798        117
  10.4984        107
  10.5170        112
  10.5355        125
  10.5541        107
  10.5727        127
  10.5913        124
  10.6098        117
  10.6284        118
  10.6470        119
  10.6656        123
  10.6841        124
  10.7027        111
  10.7213        109
  10.7399        116
  10.7584        121
  10.7770        109
  10.7956        109
  10.8142        117
  10.8327        129
  10.8513        134
  10.8699        127
  10.8885        123
  10.9070        111
  10.9256        135
  10.9442        114
  10.9628         97
  10.9813        135
  10.9999        133
  11.0185        111
  11.0371        123
  11.0556        107
  11.0742        128
  11.0928        102
  11.1114         92
  11.1299        106
  11.1485        132
  11.1671        132
  11.1857        121
  11.2043        103
  11.2228        118
  11.2414        103
  11.2600        125
  11.2786        114
  11.2971        111
  11.3157        112
  11.3343        109
  11.3529        107
  11.3714        105
  11.3900        119
  11.4086        116
  11.4272        130
  11.4457        109
  11.4643        107
  11.4829        114
  11.5015        122
  11.5200        110
  11.5386        109
  11.5572        131
  11.5758        128
  11.5943        105
  11.6129        114
  11.6315        124
  11.6501        137
  11.6686        127
  11.6872        101
  11.7058        116
  11.7244        122
  11.7429        104
  11.7615        129
  11.7801        126
  11.7987        119
  11.8172        136
  11.8358        119
  11.8544        130
  11.8730        109
  11.8915        100
  11.9101        120
  11.9287        105
  11.9473        106
  11.9659        105
  11.9844         91
  12.0030        100
  12.0216        105
  12.0402         95
  12.0587        104
  12.0773        123
  12.0959        108
  12.1145        115
  12.1330        111
  12.1516        128
  12.1702        112
  12.1888        106
  12.2073        109
  12.2259        126
  12.2445        123
  12.2631        120
  12.2816        112
  12.3002        114
  12.3188        107
  12.3374         97
  12.3559         96
  12.3745        103
  12.3931        116
  12.4117         95
  12.4302        118
  12.4488        116
  12.4674        104
  12.4860        100
  12.5045         85
  12.5231        117
  12.5417        117
  12.5603        103
  12.5788        120
  12.5974        120
  12.6160         97
  12.6346        111
  12.6531        100
  12.6717        107
  12.6903        114
  12.7089         85
  12.7274        124
  12.7460        112
  12.7646        113
  12.7832         97
  12.8018        114
  12.8203        110
  12.8389        101
  12.8575        109
  12.8761        106
  12.8946         88
  12.9132         92
  12.9318         83
  12.9504        110
  12.9689         96
  12.9875        104
  13.0061        124
  13.0247         98
  13.0432        114
  13.0618        100
  13.0804        107
  13.0990        104
  13.1175         98
  13.1361         97
  13.1547        104
  13.1733         89
  13.1918        101
  13.2104        102
  13.2290        101
  13.2476        117
  13.2661         91
  13.2847        110
  13.3033        101
  13.3219         86
  13.3404        103
  13.3590        103
  13.3776        101
  13.3962        109
  13.4147        109
  13.4333        103
  13.4519        108
  13.4705         95
  13.4890         88
  13.5076         95
  13.5262        106
  13.5448         91
  13.5634         83
  13.5819         99
  13.6005        103
  13.6191         99
  13.6377        106
  13.6562         93
  13.6748         94
  13.6934        103
  13.7120        104
  13.7305         91
  13.7491         85
  13.7677        102
  13.7863         82
  13.8048         85
  13.8234         82
  13.8420         90
  13.8606         92
  13.8791         78
  13.8977         94
  13.9163         81
  13.9349        104
  13.9534         89
  13.9720         76
  13.9906         74
  14.0092        108
  14.0277         98
  14.0463         94
  14.0649         91
  14.0835         90
  14.1020         82
  14.1206        104
  14.1392         95
  14.1578         81
  14.1763         77
  14.1949         89
  14.2135         79
  14.2321         92
  14.2506         92
  14.2692         83
  14.2878         82
  14.3064         90
  14.3250         91
  14.3435         83
  14.3621         83
  14.3807         90
  14.3993         97
  14.4178         74
  14.4364         89
  14.4550         74
  14.4736         82
  14.4921         81
  14.5107         87
  14.5293        100
  14.5479         79
  14.5664         89
  14.5850         82
  14.6036         71
  14.6222         78
  14.6407         85
  14.6593         87
  14.6779         77
  14.6965        108
  14.7150        100
  14.7336         85
  14.7522        101
  14.7708        101
  14.7893         91
  14.8079         75
  14.8265         69
  14.8451         77
  14.8636         69
  14.8822         87
  14.9008         98
  14.9194         90
  14.9379         87
  14.9565         93
  14.9751         96
  14.9937         91
  15.0122         66
  15.0308         80
  15.0494         92
  15.0680         73
  15.0866         73
  15.1051         87
  15.1237         78
  15.1423         92
  15.1609         90
  15.1794         85
  15.1980         86
  15.2166         63
  15.2352         79
  15.2537         67
  15.2723         87
  15.2909         80
  15.3095         60
  15.3280         82
  15.3466         71
  15.3652         69
  15.3838         90
  15.4023         79
  15.4209         81
  15.4395         63
  15.4581         78
  15.4766        103
  15.4952         85
  15.5138         71
  15.5324         73
  15.5509         75
  15.5695         76
  15.5881         86
  15.6067         68
  15.6252         81
  15.6438         77
  15.6624         82
  15.6810         82
  15.6995         74
  15.7181         85
  15.7367         68
  15.7553         97
  15.7738         73
  15.7924         74
  15.8110         80
  15.8296         84
  15.8482         79
  15.8667         93
  15.8853         79
  15.9039         92
  15.9225         70
  15.9410         71
  15.9596         87
  15.9782         87
  15.9968         72
  16.0153         84
  16.0339         70
  16.0525         88
  16.0711         79
  16.0896         73
  16.1082         95
  16.1268         81
  16.1454         87
  16.1639         77
  16.1825         74
  16.2011         88
  16.2197         76
  16.2382         77
  16.2568         81
  16.2754         78
  16.2940         82
  16.3125         77
  16.3311         79
  16.3497         69
  16.3683         62
  16.3868         72
  16.4054         72
  16.4240         67
  16.4426         73
  16.4611         84
  16.4797         74
  16.4983         84
  16.5169         82
  16.5354         78
  16.5540         88
  16.5726         78
  16.5912         62
  16.6097         78
  16.6283         91
  16.6469         72
  16.6655         88
  16.6841         73
  16.7026         83
  16.7212         86
  16.7398         70
  16.7584         73
  16.7769         72
  16.7955         71
  16.8141         91
  16.8327         70
  16.8512         75
  16.8698         77
  16.8884         76
  16.9070         78
  16.9255         78
  16.9441         80
  16.9627         76
  16.9813         89
  16.9998         76
  17.0184         69
  17.0370         80
  17.0556         82
  17.0741         71
  17.0927         82
  17.1113         82
  17.1299         81
  17.1484         79
  17.1670         77
  17.1856         68
  17.2042         78
  17.2227         69
  17.2413         68
  17.2599         65
  17.2785         77
  17.2970         71
  17.3156         72
  17.3342         64
  17.3528         92
  17.3713         82
  17.3899         94
  17.4085         92
  17.4271         90
  17.4457         75
  17.4642         75
  17.4828         69
  17.5014         87
  17.5200         61
  17.5385         81
  17.5571         74
  17.5757        100
  17.5943         92
  17.6128         90
  17.6314         75
  17.6500         96
  17.6686         84
  17.6871         79
  17.7057         82
  17.7243         75
  17.7429         81
  17.7614         77
  17.7800        106
  17.7986         81
  17.8172         69
  17.8357         61
  17.8543         84
  17.8729         64
  17.8915         90
  17.9100         91
  17.9286         78
  17.9472         68
  17.9658         86
  17.9843         78
  18.0029         79
  18.0215         74
  18.0401         84
  18.0586         78
  18.0772         87
  18.0958         98
  18.1144         78
  18.1329         91
  18.1515         96
  18.1701         83
  18.1887         84
  18.2073         76
  18.2258         78
  18.2444         65
  18.2630         84
  18.2816         88
  18.3001         80
  18.3187         80
  18.3373         92
  18.3559         88
  18.3744        100
  18.3930         77
  18.4116         70
  18.4302         92
  18.4487         68
  18.4673         84
  18.4859         90
  18.5045         81
  18.5230         64
  18.5416         77
  18.5602         83
  18.5788         82
  18.5973         93
  18.6159         77
  18.6345         78
  18.6531         86
  18.6716         91
  18.6902         67
  18.7088         79
  18.7274         91
  18.7459         88
  18.7645         68
  18.7831         93
  18.8017         80
  18.8202         95
  18.8388         78
  18.8574         92
  18.8760         98
  18.8945         74
  18.9131         81
  18.9317        102
  18.9503         72
  18.9689         82
  18.9874         76
  19.0060         84
  19.0246         75
  19.0432         93
  19.0617         99
  19.0803         93
  19.0989         80
  19.1175         83
  19.1360         94
  19.1546         72
  19.1732        101
  19.1918         83
  19.2103         80
  19.2289         76
  19.2475         94
  19.2661        102
  19.2846         75
  19.3032         83
  19.3218         78
  19.3404         84
  19.3589         79
  19.3775         94
  19.3961         82
  19.4147         94
  19.4332         87
  19.4518         74
  19.4704         72
  19.4890         78
  19.5075         77
  19.5261         82
  19.5447         67
  19.5633         88
  19.5818         63
  19.6004         87
  19.6190         88
  19.6376         76
  19.6561         85
  19.6747         76
  19.6933         96
  19.7119         81
  19.7305         85
  19.7490         82
  19.7676         92
  19.7862         76
  19.8048         77
  19.8233         83
  19.8419         83
  19.8605         93
  19.8791         96
  19.8976         85
  19.9162        104
  19.9348         91
  19.9534         76
  19.9719         89
  19.9905         70
  20.0091         82
  20.0277        104
  20.0462         89
  20.0648         84
  20.0834         80
  20.1020         90
  20.1205         92
  20.1391         87
  20.1577         80
  20.1763         92
  20.1948         83
  20.2134         77
  20.2320         89
  20.2506        100
  20.2691         96
  20.2877         83
  20.3063         86
  20.3249         93
  20.3434        109
  20.3620        109
  20.3806         95
  20.3992         97
  20.4177         93
  20.4363         94
  20.4549         91
  20.4735         81
  20.4921         86
  20.5106         76
  20.5292        116
  20.5478         89
  20.5664         83
  20.5849         80
  20.6035         98
  20.6221        104
  20.6407         88
  20.6592         94
  20.6778         93
  20.6964         91
  20.7150         89
  20.7335        102
  20.7521         98
  20.7707         98
  20.7893         92
  20.8078         88
  20.8264        103
  20.8450         85
  20.8636         87
  20.8821        111
  20.9007         93
  20.9193         99
  20.9379        106
  20.9564         95
  20.9750        102
  20.9936        110
  21.0122        101
  21.0307         93
  21.0493         96
  21.0679         95
  21.0865        109
  21.1050         94
  21.1236        109
  21.1422        104
  21.1608        128
  21.1793        139
  21.1979        136
  21.2165        155
  21.2351        137
  21.2537        127
  21.2722        156
  21.2908        145
  21.3094        171
  21.3280        188
  21.3465        246
  21.3651        251
  21.3837        238
  21.4023        170
  21.4208        143
  21.4394        133
  21.4580        105
  21.4766         88
  21.4951        113
  21.5137         86
  21.5323        100
  21.5509         93
  21.5694         90
  21.5880         95
  21.6066        105
  21.6252         79
  21.6437        106
  21.6623         96
  21.6809         98
  21.6995         91
  21.7180         96
  21.7366         84
  21.7552         98
  21.7738         94
  21.7923         90
  21.8109         88
  21.8295        108
  21.8481        107
  21.8666         72
  21.8852         75
  21.9038        108
  21.9224         90
  21.9409        100
  21.9595        102
  21.9781         92
  21.9967        125
  22.0152         90
  22.0338        114
  22.0524        100
  22.0710         83
  22.0896         95
  22.1081        102
  22.1267         96
  22.1453         89
  22.1639        101
  22.1824        110
  22.2010        112
  22.2196         98
  22.2382        105
  22.2567         92
  22.2753        105
  22.2939        105
  22.3125         94
  22.3310        104
  22.3496        102
  22.3682         94
  22.3868        106
  22.4053         90
  22.4239         99
  22.4425         92
  22.4611         88
  22.4796         99
  22.4982        117
  22.5168        105
  22.5354        103
  22.5539         93
  22.5725         92
  22.5911        104
  22.6097         84
  22.6282         97
  22.6468        102
  22.6654         89
  22.6840         96
  22.7025        107
  22.7211         93
  22.7397         90
  22.7583         88
  22.7768         99
  22.7954        109
  22.8140        104
  22.8326        113
  22.8512         94
  22.8697        103
  22.8883         91
  22.9069         97
  22.9255         85
  22.9440        114
  22.9626        100
  22.9812        101
  22.9998        112
  23.0183         97
  23.0369         92
  23.0555         98
  23.0741         97
  23.0926        100
  23.1112         87
  23.1298        122
  23.1484        112
  23.1669        107
  23.1855        106
  23.2041         77
  23.2227         92
  23.2412         93
  23.2598         79
  23.2784         98
  23.2970         99
  23.3155         84
  23.3341        105
  23.3527         94
  23.3713         93
  23.3898        107
  23.4084         97
  23.4270        114
  23.4456        110
  23.4641        101
  23.4827        105
  23.5013         95
  23.5199        114
  23.5384         80
  23.5570         82
  23.5756         91
  23.5942        105
  23.6128        104
  23.6313        100
  23.6499         96
  23.6685         91
  23.6871         86
  23.7056        105
  23.7242        129
  23.7428        101
  23.7614        102
  23.7799        106
  23.7985         99
  23.8171         97
  23.8357         99
  23.8542         94
  23.8728        114
  23.8914         94
  23.9100        104
  23.9285         94
  23.9471         85
  23.9657        119
  23.9843         98
  24.0028         97
  24.0214        118
  24.0400        104
  24.0586         88
  24.0771         91
  24.0957        109
  24.1143         85
  24.1329         82
  24.1514         87
  24.1700        104
  24.1886        100
  24.2072         95
  24.2257        111
  24.2443        100
  24.2629         99
  24.2815        117
  24.3000        123
  24.3186        121
  24.3372        101
  24.3558        110
  24.3744         96
  24.3929         92
  24.4115         98
  24.4301         85
  24.4487        109
  24.4672         77
  24.4858        107
  24.5044        105
  24.5230        109
  24.5415        107
  24.5601        111
  24.5787         99
  24.5973        105
  24.6158        105
  24.6344        110
  24.6530        108
  24.6716        117
  24.6901        114
  24.7087        103
  24.7273        109
  24.7459         86
  24.7644        115
  24.7830         93
  24.8016        117
  24.8202         95
  24.8387        106
  24.8573         87
  24.8759        104
  24.8945        105
  24.9130        100
  24.9316         94
  24.9502        106
  24.9688        101
  24.9873         87
  25.0059         96
  25.0245        100
  25.0431         82
  25.0616         89
  25.0802        106
  25.0988         76
  25.1174        101
  25.1360         90
  25.1545        100
  25.1731         85
  25.1917        108
  25.2103         96
  25.2288        101
  25.2474         87
  25.2660        101
  25.2846         98
  25.3031         84
  25.3217         93
  25.3403        110
  25.3589         96
  25.3774         82
  25.3960        102
  25.4146         85
  25.4332         99
  25.4517         87
  25.4703        106
  25.4889        110
  25.5075        104
  25.5260        114
  25.5446         85
  25.5632        103
  25.5818         98
  25.6003         74
  25.6189        115
  25.6375         94
  25.6561         91
  25.6746         98
  25.6932        105
  25.7118         86
  25.7304         91
  25.7489        106
  25.7675         87
  25.7861         95
  25.8047         67
  25.8232         92
  25.8418        107
  25.8604        100
  25.8790        107
  25.8976         79
  25.9161         86
  25.9347        100
  25.9533         91
  25.9719         83
  25.9904        104
  26.0090         77
  26.0276         99
  26.0462        107
  26.0647         94
  26.0833        111
  26.1019         96
  26.1205         91
  26.1390         99
  26.1576        103
  26.1762        108
  26.1948         93
  26.2133         88
  26.2319         77
  26.2505         84
  26.2691         92
  26.2876         87
  26.3062         72
  26.3248         97
  26.3434        106
  26.3619         89
  26.3805         99
  26.3991         96
  26.4177        117
  26.4362        104
  26.4548        108
  26.4734         99
  26.4920        106
  26.5105        115
  26.5291         80
  26.5477         81
  26.5663         98
  26.5848        102
  26.6034         87
  26.6220         87
  26.6406         92
  26.6591         95
  26.6777        107
  26.6963        102
  26.7149        107
  26.7335        114
  26.7520        115
  26.7706        106
  26.7892         84
  26.8078         91
  26.8263         80
  26.8449         85
  26.8635        119
  26.8821        114
  26.9006         92
  26.9192         55
  26.9378         91
  26.9564         95
  26.9749        111
  26.9935         95
  27.0121         84
  27.0307         86
  27.0492         85
  27.0678         77
  27.0864         94
  27.1050        101
  27.1235         92
  27.1421        112
  27.1607         89
  27.1793        121
  27.1978        105
  27.2164        115
  27.2350        114
  27.2536        111
  27.2721         95
  27.2907         83
  27.3093        113
  27.3279        106
  27.3464         94
  27.3650         97
  27.3836         96
  27.4022         89
  27.4207         82
  27.4393         98
  27.4579         92
  27.4765         98
  27.4951         94
  27.5136         90
  27.5322         89
  27.5508         88
  27.5694         89
  27.5879         80
  27.6065        104
  27.6251         95
  27.6437        101
  27.6622        103
  27.6808         93
  27.6994         91
  27.7180         87
  27.7365         92
  27.7551         91
  27.7737         88
  27.7923         86
  27.8108         96
  27.8294         91
  27.8480         75
  27.8666         78
  27.8851         84
  27.9037         88
  27.9223         81
  27.9409         81
  27.9594         79
  27.9780         91
  27.9966         79
  28.0152         86
  28.0337         93
  28.0523         88
  28.0709         68
  28.0895         80
  28.1080         82
  28.1266         87
  28.1452         90
  28.1638        103
  28.1823         82
  28.2009         81
  28.2195         85
  28.2381         84
  28.2567         83
  28.2752         87
  28.2938         73
  28.3124         69
  28.3310         82
  28.3495         91
  28.3681         80
  28.3867         93
  28.4053         92
  28.4238         90
  28.4424         86
  28.4610         79
  28.4796         82
  28.4981         87
  28.5167         82
  28.5353         95
  28.5539         77
  28.5724         79
  28.5910         80
  28.6096         86
  28.6282         70
  28.6467         81
  28.6653         78
  28.6839         87
  28.7025         78
  28.7210         64
  28.7396         82
  28.7582         70
  28.7768         79
  28.7953         81
  28.8139         65
  28.8325         85
  28.8511         81
  28.8696         84
  28.8882         85
  28.9068         77
  28.9254        101
  28.9439         72
  28.9625         87
  28.9811         87
  28.9997         97
  29.0183         92
  29.0368         82
  29.0554         79
  29.0740         79
  29.0926         82
  29.1111         77
  29.1297         75
  29.1483         73
  29.1669         84
  29.1854         91
  29.2040         73
  29.2226         85
  29.2412         84
  29.2597         82
  29.2783         80
  29.2969         68
  29.3155         83
  29.3340         92
  29.3526         81
  29.3712         98
  29.3898         93
  29.4083         85
  29.4269         68
  29.4455         78
  29.4641         91
  29.4826         59
  29.5012         68
  29.5198         75
  29.5384         72
  29.5569         71
  29.5755         84
  29.5941         73
  29.6127         87
  29.6312         76
  29.6498         85
  29.6684         73
  29.6870         74
  29.7055         80
  29.7241         74
  29.7427         82
  29.7613         97
  29.7799         81
  29.7984         82
  29.8170         81
  29.8356         87
  29.8542         73
  29.8727         72
  29.8913         70
  29.9099         87
  29.9285         76
  29.9470         72
  29.9656         72
  29.9842         84
  30.0028        102
  30.0213         78
  30.0399         95
  30.0585         74
  30.0771         93
  30.0956         74
  30.1142         77
  30.1328         82
  30.1514         72
  30.1699         74
  30.1885         73
  30.2071         74
  30.2257         72
  30.2442         69
  30.2628         88
  30.2814         63
  30.3000         94
  30.3185         86
  30.3371        105
  30.3557        116
  30.3743        152
  30.3928        201
  30.4114        127
  30.4300        122
  30.4486        125
  30.4671        146
  30.4857        121
  30.5043         91
  30.5229         77
  30.5415         88
  30.5600         82
  30.5786         81
  30.5972         68
  30.6158         90
  30.6343         84
  30.6529         78
  30.6715         75
  30.6901         77
  30.7086         79
  30.7272         74
  30.7458         85
  30.7644         68
  30.7829         70
  30.8015         71
  30.8201         80
  30.8387         86
  30.8572         86
  30.8758         59
  30.8944         68
  30.9130         76
  30.9315         77
  30.9501         72
  30.9687         74
  30.9873         67
  31.0058         69
  31.0244         57
  31.0430         81
  31.0616         45
  31.0801         78
  31.0987         66
  31.1173         69
  31.1359         75
  31.1544         66
  31.1730         83
  31.1916         87
  31.2102         75
  31.2287         71
  31.2473         68
  31.2659         64
  31.2845         58
  31.3030         70
  31.3216         67
  31.3402         78
  31.3588         84
  31.3774         76
  31.3959         60
  31.4145         63
  31.4331         90
  31.4517         66
  31.4702         72
  31.4888         72
  31.5074         77
  31.5260         71
  31.5445         75
  31.5631         73
  31.5817         70
  31.6003         63
  31.6188         65
  31.6374         55
  31.6560         68
  31.6746         67
  31.6931         77
  31.7117         55
  31.7303         64
  31.7489         60
  31.7674         57
  31.7860         60
  31.8046         69
  31.8232         70
  31.8417         68
  31.8603         72
  31.8789         71
  31.8975         53
  31.9160         60
  31.9346         70
  31.9532         79
  31.9718         59
  31.9903         81
  32.0089         81
  32.0275         67
  32.0461         43
  32.0646         69
  32.0832         63
  32.1018         76
  32.1204         51
  32.1390         64
  32.1575         62
  32.1761         64
  32.1947         70
  32.2133         70
  32.2318         57
  32.2504         68
  32.2690         57
  32.2876         79
  32.3061         62
  32.3247         56
  32.3433         59
  32.3619         62
  32.3804         52
  32.3990         74
  32.4176         65
  32.4362         52
  32.4547         76
  32.4733         80
  32.4919         76
  32.5105         66
  32.5290         79
  32.5476         77
  32.5662         85
  32.5848         71
  32.6033         67
  32.6219         67
  32.6405         56
  32.6591         75
  32.6776         59
  32.6962         59
  32.7148         63
  32.7334         47
  32.7519         58
  32.7705         70
  32.7891         60
  32.8077         57
  32.8262         72
  32.8448         64
  32.8634         51
  32.8820         56
  32.9006         70
  32.9191         63
  32.9377         68
  32.9563         64
  32.9749         70
  32.9934         69
  33.0120         64
  33.0306         54
  33.0492         68
  33.0677         58
  33.0863         73
  33.1049         61
  33.1235         50
  33.1420         55
  33.1606         53
  33.1792         55
  33.1978         61
  33.2163         67
  33.2349         55
  33.2535         77
  33.2721         63
  33.2906         52
  33.3092         54
  33.3278         61
  33.3464         44
  33.3649         75
  33.3835         52
  33.4021         62
  33.4207         56
  33.4392         67
  33.4578         58
  33.4764         73
  33.4950         55
  33.5135         46
  33.5321         70
  33.5507         53
  33.5693         60
  33.5878         70
  33.6064         59
  33.6250         73
  33.6436         59
  33.6622         71
  33.6807         71
  33.6993         58
  33.7179         61
  33.7365         72
  33.7550         54
  33.7736         50
  33.7922         70
  33.8108         49
  33.8293         58
  33.8479         53
  33.8665         51
  33.8851         63
  33.9036         51
  33.9222         50
  33.9408         66
  33.9594         59
  33.9779         47
  33.9965         55
  34.0151         58
  34.0337         60
  34.0522         60
  34.0708         67
  34.0894         66
  34.1080         48
  34.1265         59
  34.1451         44
  34.1637         53
  34.1823         72
  34.2008         66
  34.2194         53
  34.2380         58
  34.2566         63
  34.2751         69
  34.2937         62
  34.3123         55
  34.3309         53
  34.3494         68
  34.3680         61
  34.3866         54
  34.4052         48
  34.4238         56
  34.4423         67
  34.4609         60
  34.4795         58
  34.4981         65
  34.5166         49
  34.5352         56
  34.5538         54
  34.5724         56
  34.5909         51
  34.6095         51
  34.6281         67
  34.6467         55
  34.6652         62
  34.6838         56
  34.7024         73
  34.7210         51
  34.7395         71
  34.7581         60
  34.7767         79
  34.7953         85
  34.8138         71
  34.8324         66
  34.8510         67
  34.8696         69
  34.8881         46
  34.9067         66
  34.9253         58
  34.9439         61
  34.9624         66
  34.9810         52
  34.9996         49
  35.0182         54
  35.0367         60
  35.0553         68
  35.0739         58
  35.0925         54
  35.1110         48
  35.1296         41
  35.1482         60
  35.1668         58
  35.1854         50
  35.2039         47
  35.2225         36
  35.2411         38
  35.2597         56
  35.2782         57
  35.2968         46
  35.3154         49
  35.3340         56
  35.3525         49
  35.3711         41
  35.3897         52
  35.4083         47
  35.4268         49
  35.4454         50
  35.4640         46
  35.4826         64
  35.5011         46
  35.5197         47
  35.5383         42
  35.5569         55
  35.5754         50
  35.5940         37
  35.6126         46
  35.6312         48
  35.6497         41
  35.6683         45
  35.6869         59
  35.7055         50
  35.7240         44
  35.7426         54
  35.7612         42
  35.7798         56
  35.7983         45
  35.8169         53
  35.8355         42
  35.8541         49
  35.8726         51
  35.8912         46
  35.9098         43
  35.9284         54
  35.9469         53
  35.9655         45
  35.9841         53
  36.0027         44
  36.0213         44
  36.0398         43
  36.0584         45
  36.0770         40
  36.0956         37
  36.1141         52
  36.1327         48
  36.1513         55
  36.1699         49
  36.1884         52
  36.2070         44
  36.2256         54
  36.2442         47
  36.2627         51
  36.2813         50
  36.2999         53
  36.3185         57
  36.3370         38
  36.3556         51
  36.3742         52
  36.3928         48
  36.4113         52
  36.4299         56
  36.4485         44
  36.4671         68
  36.4856         42
  36.5042         51
  36.5228         37
  36.5414         35
  36.5599         37
  36.5785         50
  36.5971         45
  36.6157         57
  36.6342         44
  36.6528         40
  36.6714         45
  36.6900         47
  36.7085         41
  36.7271         41
  36.7457         28
  36.7643         34
  36.7829         39
  36.8014         52
  36.8200         50
  36.8386         57
  36.8572         48
  36.8757         37
  36.8943         54
  36.9129         45
  36.9315         40
  36.9500         32
  36.9686         46
  36.9872         40
  37.0058         53
  37.0243         56
  37.0429         49
  37.0615         41
  37.0801         39
  37.0986         32
  37.1172         53
  37.1358         47
  37.1544         37
  37.1729         60
  37.1915         51
  37.2101         38
  37.2287         48
  37.2472         51
  37.2658         43
  37.2844         52
  37.3030         42
  37.3215         62
  37.3401         52
  37.3587         56
  37.3773         54
  37.3958         44
  37.4144         52
  37.4330         67
  37.4516         65
  37.4701         75
  37.4887         59
  37.5073         46
  37.5259         49
  37.5445         60
  37.5630         59
  37.5816         61
  37.6002         39
  37.6188         35
  37.6373         40
  37.6559         38
  37.6745         53
  37.6931         45
  37.7116         42
  37.7302         46
  37.7488         39
  37.7674         50
  37.7859         40
  37.8045         43
  37.8231         32
  37.8417         40
  37.8602         49
  37.8788         47
  37.8974         38
  37.9160         45
  37.9345         37
  37.9531         45
  37.9717         37
  37.9903         39
  38.0088         45
  38.0274         37
  38.0460         43
  38.0646         56
  38.0831         41
  38.1017         50
  38.1203         44
  38.1389         40
  38.1574         42
  38.1760         40
  38.1946         35
  38.2132         45
  38.2317         55
  38.2503         40
  38.2689         34
  38.2875         55
  38.3061         44
  38.3246         35
  38.3432         40
  38.3618         47
  38.3804         38
  38.3989         34
  38.4175         37
  38.4361         49
  38.4547         42
  38.4732         46
  38.4918         35
  38.5104         38
  38.5290         48
  38.5475         46
  38.5661         51
  38.5847         38
  38.6033         48
  38.6218         49
  38.6404         43
  38.6590         37
  38.6776         37
  38.6961         38
  38.7147         45
  38.7333         37
  38.7519         51
  38.7704         43
  38.7890         35
  38.8076         43
  38.8262         52
  38.8447         40
  38.8633         30
  38.8819         61
  38.9005         42
  38.9190         40
  38.9376         35
  38.9562         37
  38.9748         49
  38.9933         41
  39.0119         49
  39.0305         42
  39.0491         45
  39.0677         43
  39.0862         47
  39.1048         34
  39.1234         42
  39.1420         41
  39.1605         44
  39.1791         32
  39.1977         40
  39.2163         39
  39.2348         37
  39.2534         50
  39.2720         46
  39.2906         41
  39.3091         50
  39.3277         31
  39.3463         40
  39.3649         42
  39.3834         38
  39.4020         36
  39.4206         35
  39.4392         49
  39.4577         47
  39.4763         38
  39.4949         40
  39.5135         39
  39.5320         28
  39.5506         35
  39.5692         40
  39.5878         35
  39.6063         45
  39.6249         36
  39.6435         41
  39.6621         42
  39.6806         33
  39.6992         34
  39.7178         49
  39.7364         30
  39.7549         41
  39.7735         49
  39.7921         42
  39.8107         42
  39.8293         43
  39.8478         45
  39.8664         39
  39.8850         30
  39.9036         39
  39.9221         44
  39.9407         39
  39.9593         41
  39.9779         47
  39.9964         39
  40.0150         25
  40.0336         38
  40.0522         31
  40.0707         38
  40.0893         34
  40.1079         38
  40.1265         47
  40.1450         36
  40.1636         44
  40.1822         31
  40.2008         42
  40.2193         37
  40.2379         39
  40.2565         33
  40.2751         41
  40.2936         38
  40.3122         30
  40.3308         41
  40.3494         36
  40.3679         34
  40.3865         38
  40.4051         43
  40.4237         51
  40.4422         45
  40.4608         41
  40.4794         43
  40.4980         37
  40.5165         47
  40.5351         34
  40.5537         35
  40.5723         45
  40.5908         30
  40.6094         35
  40.6280         37
  40.6466         35
  40.6652         45
  40.6837         41
  40.7023         32
  40.7209         32
  40.7395         41
  40.7580         45
  40.7766         45
  40.7952         48
  40.8138         44
  40.8323         31
  40.8509         40
  40.8695         29
  40.8881         53
  40.9066         46
  40.9252         42
  40.9438         37
  40.9624         50
  40.9809         46
  40.9995         44
  41.0181         42
  41.0367         29
  41.0552         37
  41.0738         29
  41.0924         41
  41.1110         36
  41.1295         51
  41.1481         36
  41.1667         36
  41.1853         43
  41.2038         42
  41.2224         45
  41.2410         33
  41.2596         43
  41.2781         37
  41.2967         37
  41.3153         24
  41.3339         34
  41.3524         37
  41.3710         43
  41.3896         32
  41.4082         43
  41.4268         48
  41.4453         32
  41.4639         31
  41.4825         27
  41.5011         44
  41.5196         39
  41.5382         40
  41.5568         48
  41.5754         39
  41.5939         34
  41.6125         38
  41.6311         40
  41.6497         34
  41.6682         45
  41.6868         33
  41.7054         48
  41.7240         37
  41.7425         33
  41.7611         39
  41.7797         40
  41.7983         31
  41.8168         38
  41.8354         42
  41.8540         34
  41.8726         26
  41.8911         42
  41.9097         36
  41.9283         39
  41.9469         47
  41.9654         41
  41.9840         55
  42.0026         40
  42.0212         38
  42.0397         28
  42.0583         39
  42.0769         34
  42.0955         40
  42.1140         46
  42.1326         36
  42.1512         38
  42.1698         37
  42.1884         36
  42.2069         45
  42.2255         44
  42.2441         37
  42.2627         35
  42.2812         41
  42.2998         39
  42.3184         47
  42.3370         26
  42.3555         36
  42.3741         39
  42.3927         32
  42.4113         39
  42.4298         37
  42.4484         44
  42.4670         40
  42.4856         35
  42.5041         41
  42.5227         40
  42.5413         42
  42.5599         40
  42.5784         43
  42.5970         30
  42.6156         45
  42.6342         37
  42.6527         34
  42.6713         34
  42.6899         43
  42.7085         38
  42.7270         43
  42.7456         42
  42.7642         43
  42.7828         43
  42.8013         28
  42.8199         41
  42.8385         34
  42.8571         32
  42.8756         42
  42.8942         26
  42.9128         25
  42.9314         38
  42.9500         40
  42.9685         40
  42.9871         42
  43.0057         34
  43.0243         34
  43.0428         27
  43.0614         27
  43.0800         48
  43.0986         33
  43.1171         40
  43.1357         32
  43.1543         26
  43.1729         31
  43.1914         40
  43.2100         43
  43.2286         36
  43.2472         31
  43.2657         44
  43.2843         41
  43.3029         38
  43.3215         34
  43.3400         47
  43.3586         46
  43.3772         42
  43.3958         44
  43.4143         37
  43.4329         42
  43.4515         48
  43.4701         50
  43.4886         40
  43.5072         66
  43.5258         62
  43.5444         54
  43.5629         32
  43.5815         46
  43.6001         54
  43.6187         56
  43.6372         62
  43.6558         44
  43.6744         43
  43.6930         46
  43.7116         27
  43.7301         30
  43.7487         33
  43.7673         43
  43.7859         38
  43.8044         25
  43.8230         26
  43.8416         37
  43.8602         32
  43.8787         42
  43.8973         46
  43.9159         27
  43.9345         43
  43.9530         31
  43.9716         43
  43.9902         40
  44.0088         25
  44.0273         41
  44.0459         34
  44.0645         38
  44.0831         49
  44.1016         32
  44.1202         32
  44.1388         42
  44.1574         36
  44.1759         43
  44.1945         41
  44.2131         31
  44.2317         27
  44.2502         30
  44.2688         41
  44.2874         41
  44.3060         49
  44.3245         27
  44.3431         33
  44.3617         37
  44.3803         40
  44.3988         35
  44.4174         38
  44.4360         44
  44.4546         32
  44.4732         40
  44.4917         45
  44.5103         29
  44.5289         37
  44.5475         38
  44.5660         36
  44.5846         33
  44.6032         22
  44.6218         45
  44.6403         38
  44.6589         35
  44.6775         45
  44.6961         37
  44.7146         34
  44.7332         44
  44.7518         40
  44.7704         50
  44.7889         43
  44.8075         36
  44.8261         35
  44.8447         45
  44.8632         34
  44.8818         37
  44.9004         33
  44.9190         28
  44.9375         42
  44.9561         37
  44.9747         37
  44.9933         33
  45.0118         28
  45.0304         36
  45.0490         34
  45.0676         22
  45.0861         27
  45.1047         28
  45.1233         40
  45.1419         22
  45.1604         44
  45.1790         43
  45.1976         31
  45.2162         38
  45.2347         34
  45.2533         24
  45.2719         34
  45.2905         28
  45.3091         36
  45.3276         33
  45.3462         35
  45.3648         28
  45.3834         27
  45.4019         33
  45.4205         41
  45.4391         32
  45.4577         43
  45.4762         39
  45.4948         35
  45.5134         29
  45.5320         32
  45.5505         42
  45.5691         34
  45.5877         29
  45.6063         38
  45.6248         44
  45.6434         33
  45.6620         30
  45.6806         28
  45.6991         34
  45.7177         32
  45.7363         18
  45.7549         33
  45.7734         29
  45.7920         38
  45.8106         30
  45.8292         31
  45.8477         41
  45.8663         31
  45.8849         22
  45.9035         30
  45.9220         32
  45.9406         29
  45.9592         34
  45.9778         20
  45.9963         35
  46.0149         35
  46.0335         34
  46.0521         39
  46.0707         32
  46.0892         26
  46.1078         34
  46.1264         45
  46.1450         27
  46.1635         26
  46.1821         26
  46.2007         32
  46.2193         45
  46.2378         31
  46.2564         33
  46.2750         30
  46.2936         34
  46.3121         35
  46.3307         27
  46.3493         38
  46.3679         37
  46.3864         37
  46.4050         36
  46.4236         34
  46.4422         29
  46.4607         31
  46.4793         35
  46.4979         32
  46.5165         32
  46.5350         29
  46.5536         37
  46.5722         33
  46.5908         37
  46.6093         30
  46.6279         24
  46.6465         41
  46.6651         38
  46.6836         28
  46.7022         35
  46.7208         35
  46.7394         40
  46.7579         37
  46.7765         30
  46.7951         33
  46.8137         43
  46.8323         31
  46.8508         44
  46.8694         29
  46.8880         34
  46.9066         36
  46.9251         28
  46.9437         35
  46.9623         32
  46.9809         28
  46.9994         39
  47.0180         35
  47.0366         31
  47.0552         26
  47.0737         30
  47.0923         32
  47.1109         28
  47.1295         18
  47.1480         28
  47.1666         39
  47.1852         34
  47.2038         23
  47.2223         36
  47.2409         34
  47.2595         22
  47.2781         27
  47.2966         31
  47.3152         38
  47.3338         23
  47.3524         30
  47.3709         38
  47.3895         38
  47.4081         37
  47.4267         23
  47.4452         33
  47.4638         30
  47.4824         30
  47.5010         27
  47.5195         24
  47.5381         34
  47.5567         42
  47.5753         34
  47.5939         24
  47.6124         36
  47.6310         32
  47.6496         29
  47.6682         19
  47.6867         24
  47.7053         30
  47.7239         27
  47.7425         25
  47.7610         21
  47.7796         50
  47.7982         33
  47.8168         32
  47.8353         36
  47.8539         36
  47.8725         36
  47.8911         39
  47.9096         30
  47.9282         26
  47.9468         28
  47.9654         24
  47.9839         37
  48.0025         27
  48.0211         39
  48.0397         29
  48.0582         27
  48.0768         36
  48.0954         27
  48.1140         35
  48.1325         33
  48.1511         22
  48.1697         30
  48.1883         23
  48.2068         31
  48.2254         31
  48.2440         44
  48.2626         31
  48.2811         27
  48.2997         29
  48.3183         39
  48.3369         30
  48.3555         31
  48.3740         28
  48.3926         24
  48.4112         23
  48.4298         32
  48.4483         32
  48.4669         34
  48.4855         22
  48.5041         20
  48.5226         32
  48.5412         25
  48.5598         27
  48.5784         23
  48.5969         30
  48.6155         32
  48.6341         37
  48.6527         26
  48.6712         28
  48.6898         21
  48.7084         28
  48.7270         39
  48.7455         37
  48.7641         40
  48.7827         35
  48.8013         29
  48.8198         45
  48.8384         26
  48.8570         33
  48.8756         22
  48.8941         42
  48.9127         41
  48.9313         51
  48.9499         66
  48.9684         56
  48.9870         50
  49.0056         36
  49.0242         40
  49.0427         35
  49.0613         29
  49.0799         36
  49.0985         35
  49.1171         43
  49.1356         34
  49.1542         36
  49.1728         21
  49.1914         34
  49.2099         35
  49.2285         30
  49.2471         38
  49.2657         33
  49.2842         26
  49.3028         25
  49.3214         27
  49.3400         37
  49.3585         28
  49.3771         34
  49.3957         22
  49.4143         34
  49.4328         30
  49.4514         35
  49.4700         23
  49.4886         30
  49.5071         26
  49.5257         22
  49.5443         31
  49.5629         23
  49.5814         30
  49.6000         31
  49.6186         20
  49.6372         40
  49.6557         33
  49.6743         39
  49.6929         35
  49.7115         39
  49.7300         33
  49.7486         36
  49.7672         34
  49.7858         29
  49.8043         30
  49.8229         19
  49.8415         26
  49.8601         30
  49.8786         34
  49.8972         22
  49.9158         33
  49.9344         31
  49.9530         34
  49.9715         26
  49.9901         29
  50.0087         37
  50.0273         33
  50.0458         27
  50.0644         35
  50.0830         24
  50.1016         32
  50.1201         32
  50.1387         36
  50.1573         41
  50.1759         35
  50.1944         34
  50.2130         34
  50.2316         21
  50.2502         40
  50.2687         30
  50.2873         26
  50.3059         25
  50.3245         34
  50.3430         28
  50.3616         33
  50.3802         30
  50.3988         37
  50.4173         34
  50.4359         28
  50.4545         29
  50.4731         40
  50.4916         32
  50.5102         32
  50.5288         22
  50.5474         31
  50.5659         29
  50.5845         34
  50.6031         32
  50.6217         29
  50.6402         32
  50.6588         27
  50.6774         44
  50.6960         32
  50.7146         42
  50.7331         14
  50.7517         27
  50.7703         27
  50.7889         32
  50.8074         34
  50.8260         27
  50.8446         30
  50.8632         25
  50.8817         36
  50.9003         31
  50.9189         25
  50.9375         27
  50.9560         28
  50.9746         25
  50.9932         31
  51.0118         35
  51.0303         25
  51.0489         27
  51.0675         29
  51.0861         27
  51.1046         26
  51.1232         27
  51.1418         29
  51.1604         30
  51.1789         32
  51.1975         33
  51.2161         25
  51.2347         33
  51.2532         34
  51.2718         40
  51.2904         40
  51.3090         22
  51.3275         31
  51.3461         33
  51.3647         27
  51.3833         24
  51.4018         32
  51.4204         29
  51.4390         30
  51.4576         37
  51.4762         17
  51.4947         29
  51.5133         32
  51.5319         38
  51.5505         39
  51.5690         33
  51.5876         29
  51.6062         34
  51.6248         30
  51.6433         30
  51.6619         22
  51.6805         32
  51.6991         33
  51.7176         22
  51.7362         30
  51.7548         29
  51.7734         35
  51.7919         32
  51.8105         29
  51.8291         32
  51.8477         47
  51.8662         31
  51.8848         42
  51.9034         31
  51.9220         39
  51.9405         37
  51.9591         29
  51.9777         27
  51.9963         19
  52.0148         36
  52.0334         31
  52.0520         27
  52.0706         24
  52.0891         24
  52.1077         23
  52.1263         25
  52.1449         22
  52.1634         26
  52.1820         27
  52.2006         26
  52.2192         23
  52.2378         26
  52.2563         30
  52.2749         38
  52.2935         31
  52.3121         26
  52.3306         23
  52.3492         23
  52.3678         36
  52.3864         22
  52.4049         22
  52.4235         22
  52.4421         31
  52.4607         29
  52.4792         27
  52.4978         27
  52.5164         31
  52.5350         32
  52.5535         36
  52.5721         35
  52.5907         37
  52.6093         17
  52.6278         25
  52.6464         36
  52.6650         28
  52.6836         27
  52.7021         32
  52.7207         33
  52.7393         31
  52.7579         38
  52.7764         25
  52.7950         23
  52.8136         32
  52.8322         18
  52.8507         22
  52.8693         24
  52.8879         29
  52.9065         29
  52.9250         27
  52.9436         40
  52.9622         23
  52.9808         32
  52.9994         37
  53.0179         39
  53.0365         28
  53.0551         38
  53.0737         28
  53.0922         30
  53.1108         30
  53.1294         35
  53.1480         29
  53.1665         26
  53.1851         28
  53.2037         23
  53.2223         24
  53.2408         28
  53.2594         30
  53.2780         37
  53.2966         34
  53.3151         31
  53.3337         30
  53.3523         26
  53.3709         38
  53.3894         40
  53.4080         26
  53.4266         37
  53.4452         15
  53.4637         36
  53.4823         23
  53.5009         24
  53.5195         21
  53.5380         24
  53.5566         19
  53.5752         24
  53.5938         40
  53.6123         27
  53.6309         40
  53.6495         31
  53.6681         27
  53.6866         27
  53.7052         25
  53.7238         24
  53.7424         39
  53.7610         34
  53.7795         37
  53.7981         23
  53.8167         30
  53.8353         37
  53.8538         34
  53.8724         22
  53.8910         32
  53.9096         26
  53.9281         31
  53.9467         34
  53.9653         35
  53.9839         52
  54.0024         41
  54.0210         29
  54.0396         35
  54.0582         35
  54.0767         38
  54.0953         28
  54.1139         29
  54.1325         50
  54.1510         40
  54.1696         36
  54.1882         39
  54.2068         27
  54.2253         20
  54.2439         27
  54.2625         29
  54.2811         29
  54.2996         20
  54.3182         21
  54.3368         27
  54.3554         28
  54.3739         24
  54.3925         33
  54.4111         27
  54.4297         32
  54.4482         26
  54.4668         33
  54.4854         25
  54.5040         27
  54.5225         31
  54.5411         29
  54.5597         23
  54.5783         30
  54.5969         30
  54.6154         31
  54.6340         25
  54.6526         32
  54.6712         19
  54.6897         28
  54.7083         22
  54.7269         25
  54.7455         29
  54.7640         18
  54.7826         28
  54.8012         35
  54.8198         17
  54.8383         28
  54.8569         25
  54.8755         30
  54.8941         18
  54.9126         30
  54.9312         29
  54.9498         28
  54.9684         28
  54.9869         24
  55.0055         25
  55.0241         30
  55.0427         19
  55.0612         32
  55.0798         32
  55.0984         24
  55.1170         32
  55.1355         27
  55.1541         25
  55.1727         29
  55.1913         30
  55.2098         30
  55.2284         17
  55.2470         21
  55.2656         26
  55.2841         28
  55.3027         31
  55.3213         20
  55.3399         32
  55.3585         32
  55.3770         29
  55.3956         24
  55.4142         23
  55.4328         28
  55.4513         25
  55.4699         26
  55.4885         26
  55.5071         27
  55.5256         32
  55.5442         25
  55.5628         23
  55.5814         24
  55.5999         16
  55.6185         29
  55.6371         30
  55.6557         21
  55.6742         37
  55.6928         30
  55.7114         34
  55.7300         32
  55.7485         28
  55.7671         29
  55.7857         19
  55.8043         31
  55.8228         34
  55.8414         27
  55.8600         38
  55.8786         29
  55.8971         31
  55.9157         27
  55.9343         23
  55.9529         29
  55.9714         30
  55.9900         23
  56.0086         30
  56.0272         31
  56.0457         37
  56.0643         40
  56.0829         35
  56.1015         25
  56.1201         24
  56.1386         27
  56.1572         23
  56.1758         21
  56.1944         36
  56.2129         28
  56.2315         33
  56.2501         27
  56.2687         27
  56.2872         34
  56.3058         32
  56.3244         21
  56.3430         30
  56.3615         32
  56.3801         23
  56.3987         34
  56.4173         14
  56.4358         24
  56.4544         21
  56.4730         29
  56.4916         28
  56.5101         43
  56.5287         28
  56.5473         25
  56.5659         29
  56.5844         17
  56.6030         24
  56.6216         25
  56.6402         23
  56.6587         26
  56.6773         20
  56.6959         35
  56.7145         26
  56.7330         19
  56.7516         28
  56.7702         22
  56.7888         25
  56.8073         26
  56.8259         24
  56.8445         31
  56.8631         26
  56.8817         28
  56.9002         21
  56.9188         21
  56.9374         21
  56.9560         30
  56.9745         29
  56.9931         24
  57.0117         25
  57.0303         27
  57.0488         21
  57.0674         21
  57.0860         23
  57.1046         30
  57.1231         24
  57.1417         28
  57.1603         28
  57.1789         24
  57.1974         29
  57.2160         24
  57.2346         36
  57.2532         32
  57.2717         26
  57.2903         29
  57.3089         26
  57.3275         29
  57.3460         25
  57.3646         35
  57.3832         24
  57.4018         32
  57.4203         31
  57.4389         37
  57.4575         31
  57.4761         27
  57.4946         31
  57.5132         25
  57.5318         20
  57.5504         25
  57.5689         31
  57.5875         21
  57.6061         25
  57.6247         22
  57.6433         23
  57.6618         34
  57.6804         27
  57.6990         21
  57.7176         42
  57.7361         26
  57.7547         23
  57.7733         33
  57.7919         33
  57.8104         31
  57.8290         30
  57.8476         19
  57.8662         26
  57.8847         22
  57.9033         36
  57.9219         22
  57.9405         27
  57.9590         30
  57.9776         33
  57.9962         31
  58.0148         25
  58.0333         32
  58.0519         26
  58.0705         23
  58.0891         21
  58.1076         29
  58.1262         32
  58.1448         34
  58.1634         17
  58.1819         31
  58.2005         21
  58.2191         30
  58.2377         29
  58.2562         29
  58.2748         24
  58.2934         23
  58.3120         30
  58.3305         23
  58.3491         28
  58.3677         25
  58.3863         29
  58.4049         34
  58.4234         23
  58.4420         24
  58.4606         31
  58.4792         30
  58.4977         28
  58.5163         30
  58.5349         22
  58.5535         25
  58.5720         24
  58.5906         22
  58.6092         21
  58.6278         28
  58.6463         25
  58.6649         27
  58.6835         26
  58.7021         21
  58.7206         39
  58.7392         28
  58.7578         24
  58.7764         30
  58.7949         31
  58.8135         20
  58.8321         28
  58.8507         26
  58.8692         30
  58.8878         24
  58.9064         20
  58.9250         41
  58.9435         35
  58.9621         24
  58.9807         36
  58.9993         23
  59.0178         31
  59.0364         24
  59.0550         26
  59.0736         31
  59.0921         23
  59.1107         26
  59.1293         28
  59.1479         30
  59.1664         24
  59.1850         25
  59.2036         21
  59.2222         34
  59.2408         25
  59.2593         17
  59.2779         32
  59.2965         31
  59.3151         27
  59.3336         29
  59.3522         25
  59.3708         29
  59.3894         32
  59.4079         27
  59.4265         38
  59.4451         32
  59.4637         28
  59.4822         35
  59.5008         26
  59.5194         25
  59.5380         31
  59.5565         28
  59.5751         26
  59.5937         31
  59.6123         23
  59.6308         27
  59.6494         30
  59.6680         33
  59.6866         29
  59.7051         24
  59.7237         30
  59.7423         26
  59.7609         21
  59.7794         24
  59.7980         28
  59.8166         29
  59.8352         27
  59.8537         18
  59.8723         27
  59.8909         23
  59.9095         29
  59.9280         30
  59.9466         35
  59.9652         25
  59.9838         32
  60.0024         17
