; (content of file Y:\Sam\Apurva-07-20-2022\puck2\ML_20220720_10_SJD_0_LaB6-1min.raw)
_FILEVERSION = 3
_SAMPLE = ML_20220720_10_SJD_0_LaB6-1mi
_+SAMPLE = 
_SITE = USA
_USER = Administrator
_GONIOMETER_CODE = 20
; Goniometer : D8 theta/2theta, stage : Unknown
_ATTACHMENTS_CODE = 0
_GONIOMETER_RADIUS = 200.5
_FIXED_DIVSLIT = 0.6
_FIXED_SAMPLESLIT = 0
_SOLLER_SLITS = 2
_FIXED_DETSLIT = 9.55
_MONOCHROMATOR = 0
; Incident beam monochromator : None
_SOLLER_SLITS_2 = N
_THIN_FILM = N
_BETA_FILTER = Y
_FIXED_ANTISLIT = 5.89
_ANALYZER_CODE = 0
; Received beam analyzer : None
_DATEMEASURED = "25-Jul-2022 18:04:57"
_WL_UNIT = A
_WL1 = 1.5406
_WL2 = 1.54439
_WL3 = 1.39222
_WLRATIO = 0.5
_ANODE = Cu
_V4_INF_CREATOR = XRDWizard
_V4_INF_CREATOR_VERSION = V2.9.0.22
_V4_INF_WIZARD_VERSION = V2.9.0.22
_V4_INF_WIZARD_ADDINS = V2.9.0.22
_V4_INF_WIZARD_DOCTYPE = XRD
_V4_INF_OSUSER = McQueenLab
_V4_INF_USER = Administrator
_V4_INF_SITE = USA
_V4_INF_SAMPLEID = ML_20220720_10_SJD_0_LaB6-1mi

; Data for range 1
_DRIVE = COUPLED
_STEPTIME = 4.23
_STEPSIZE = 0.0185756
_STEPMODE = C
_START = 5
_THETA = 2.5
_2THETA = 5
_KHI = 0
_PHI = 0
_X = 0
_Y = 0
_Z = 0
_DETECTOR = 5
; Detector type : Unknown
_DETECTORSLIT = unkn
_AUX1 = 0
_AUX2 = 0
_AUX3 = 0
_TIMESTARTED = 16
_TEMP_RATE = -1
_TEMP_DELAY = -1
_KV = 40
_MA = 40
_RANGE_WL = 1.5406
_3DPLANE = 0
_V4_ADDITIONALDETECTOR = 257
_V4_PSD2THETA = 3.3766
_V4_PSDCHANNEL1 = 0
_V4_PSDAPERTURE = 12.68
_V4_PSDTYPE = 5
_V4_PSDFIXED = 0
_V4_COUNTERS_MASK = 4096
_V4_DRIVES_MASK = 0
_V4_ENCODERS_MASK = 0
_2THETACOUNTS = 1
; 2THETA  PSD
   5.0000         97
   5.0186         70
   5.0372         94
   5.0557         96
   5.0743         86
   5.0929         95
   5.1115        110
   5.1300         88
   5.1486         85
   5.1672        106
   5.1858        101
   5.2043        104
   5.2229         86
   5.2415         97
   5.2601         82
   5.2786         94
   5.2972         96
   5.3158         87
   5.3344         84
   5.3529        102
   5.3715         89
   5.3901         61
   5.4087         77
   5.4272         97
   5.4458         95
   5.4644         72
   5.4830         96
   5.5015        106
   5.5201         80
   5.5387         75
   5.5573         82
   5.5758        102
   5.5944         62
   5.6130         90
   5.6316         86
   5.6501         85
   5.6687         80
   5.6873         75
   5.7059         87
   5.7244         95
   5.7430         87
   5.7616         71
   5.7802         71
   5.7988         94
   5.8173         83
   5.8359         80
   5.8545         73
   5.8731         78
   5.8916         64
   5.9102         68
   5.9288         70
   5.9474         73
   5.9659         79
   5.9845         71
   6.0031         70
   6.0217         70
   6.0402         70
   6.0588         67
   6.0774         71
   6.0960         72
   6.1145         76
   6.1331         68
   6.1517         82
   6.1703         73
   6.1888         63
   6.2074         62
   6.2260         62
   6.2446         65
   6.2631         78
   6.2817         77
   6.3003         77
   6.3189         59
   6.3374         64
   6.3560         65
   6.3746         71
   6.3932         74
   6.4117         72
   6.4303         64
   6.4489         71
   6.4675         53
   6.4860         54
   6.5046         57
   6.5232         64
   6.5418         70
   6.5604         62
   6.5789         52
   6.5975         66
   6.6161         69
   6.6347         55
   6.6532         66
   6.6718         73
   6.6904         51
   6.7090         63
   6.7275         70
   6.7461         57
   6.7647         62
   6.7833         81
   6.8018         70
   6.8204         67
   6.8390         71
   6.8576         61
   6.8761         53
   6.8947         63
   6.9133         59
   6.9319         77
   6.9504         71
   6.9690         54
   6.9876         63
   7.0062         43
   7.0247         67
   7.0433         66
   7.0619         59
   7.0805         71
   7.0990         59
   7.1176         51
   7.1362         53
   7.1548         50
   7.1733         52
   7.1919         68
   7.2105         55
   7.2291         63
   7.2476         46
   7.2662         66
   7.2848         51
   7.3034         56
   7.3220         57
   7.3405         61
   7.3591         62
   7.3777         53
   7.3963         68
   7.4148         59
   7.4334         51
   7.4520         54
   7.4706         60
   7.4891         72
   7.5077         56
   7.5263         59
   7.5449         57
   7.5634         69
   7.5820         68
   7.6006         63
   7.6192         61
   7.6377         47
   7.6563         56
   7.6749         67
   7.6935         70
   7.7120         71
   7.7306         70
   7.7492         85
   7.7678         66
   7.7863         68
   7.8049         58
   7.8235         69
   7.8421         68
   7.8606         62
   7.8792         67
   7.8978         70
   7.9164         48
   7.9349         68
   7.9535         64
   7.9721         62
   7.9907         61
   8.0092         68
   8.0278         65
   8.0464         70
   8.0650         66
   8.0835         72
   8.1021         61
   8.1207         75
   8.1393         68
   8.1579         63
   8.1764         67
   8.1950         66
   8.2136         84
   8.2322         58
   8.2507         72
   8.2693         69
   8.2879         69
   8.3065         69
   8.3250         78
   8.3436         68
   8.3622         74
   8.3808         72
   8.3993         77
   8.4179         77
   8.4365         56
   8.4551         60
   8.4736         63
   8.4922         69
   8.5108         76
   8.5294         79
   8.5479         79
   8.5665         46
   8.5851         71
   8.6037         67
   8.6222         73
   8.6408         70
   8.6594         72
   8.6780         78
   8.6965         72
   8.7151         64
   8.7337         68
   8.7523         93
   8.7708         70
   8.7894         69
   8.8080         74
   8.8266         71
   8.8451         83
   8.8637         77
   8.8823         85
   8.9009         72
   8.9195         71
   8.9380         66
   8.9566         67
   8.9752         75
   8.9938         71
   9.0123         86
   9.0309         82
   9.0495         90
   9.0681         94
   9.0866         77
   9.1052         86
   9.1238         81
   9.1424         88
   9.1609         76
   9.1795         96
   9.1981         75
   9.2167         74
   9.2352         89
   9.2538         86
   9.2724         76
   9.2910         87
   9.3095         66
   9.3281         74
   9.3467         81
   9.3653         84
   9.3838         82
   9.4024         83
   9.4210         80
   9.4396         83
   9.4581         83
   9.4767         76
   9.4953         66
   9.5139         86
   9.5324         78
   9.5510         78
   9.5696         76
   9.5882         79
   9.6067         81
   9.6253         87
   9.6439         62
   9.6625         94
   9.6811         87
   9.6996         90
   9.7182         89
   9.7368         82
   9.7554         77
   9.7739         87
   9.7925         82
   9.8111         84
   9.8297         71
   9.8482         79
   9.8668         77
   9.8854         99
   9.9040         99
   9.9225         87
   9.9411         95
   9.9597         95
   9.9783         64
   9.9968         76
  10.0154         73
  10.0340         75
  10.0526         79
  10.0711         96
  10.0897         92
  10.1083         92
  10.1269         86
  10.1454         95
  10.1640         88
  10.1826         86
  10.2012         95
  10.2197         78
  10.2383         84
  10.2569         98
  10.2755         86
  10.2940         83
  10.3126        114
  10.3312         91
  10.3498         89
  10.3683         84
  10.3869         89
  10.4055         83
  10.4241         74
  10.4427         91
  10.4612         87
  10.4798         79
  10.4984         87
  10.5170         95
  10.5355         81
  10.5541         81
  10.5727         72
  10.5913         74
  10.6098         74
  10.6284         93
  10.6470         73
  10.6656         73
  10.6841         94
  10.7027         86
  10.7213         81
  10.7399         85
  10.7584         84
  10.7770         71
  10.7956         83
  10.8142         72
  10.8327         80
  10.8513         80
  10.8699         84
  10.8885         84
  10.9070         85
  10.9256         95
  10.9442         88
  10.9628         94
  10.9813         78
  10.9999         84
  11.0185        104
  11.0371         87
  11.0556         89
  11.0742         87
  11.0928         83
  11.1114        115
  11.1299         95
  11.1485         99
  11.1671         83
  11.1857         91
  11.2043         90
  11.2228         70
  11.2414         90
  11.2600         87
  11.2786         75
  11.2971         93
  11.3157         87
  11.3343         85
  11.3529        101
  11.3714         91
  11.3900         87
  11.4086         87
  11.4272         85
  11.4457        103
  11.4643         78
  11.4829         75
  11.5015         87
  11.5200         92
  11.5386         92
  11.5572         84
  11.5758        102
  11.5943         93
  11.6129         93
  11.6315         99
  11.6501         84
  11.6686         99
  11.6872         91
  11.7058         86
  11.7244        104
  11.7429         92
  11.7615         73
  11.7801         85
  11.7987         97
  11.8172         84
  11.8358         97
  11.8544         84
  11.8730         84
  11.8915         76
  11.9101         91
  11.9287         83
  11.9473         78
  11.9659         84
  11.9844         83
  12.0030         87
  12.0216         77
  12.0402         77
  12.0587         73
  12.0773         85
  12.0959         75
  12.1145         75
  12.1330         78
  12.1516         81
  12.1702         86
  12.1888         84
  12.2073         73
  12.2259         77
  12.2445         90
  12.2631         91
  12.2816         96
  12.3002         88
  12.3188         83
  12.3374         75
  12.3559         67
  12.3745         74
  12.3931         67
  12.4117         87
  12.4302         79
  12.4488         64
  12.4674         78
  12.4860         88
  12.5045         79
  12.5231         57
  12.5417         72
  12.5603         99
  12.5788         81
  12.5974         78
  12.6160         81
  12.6346         78
  12.6531         78
  12.6717         70
  12.6903         96
  12.7089         66
  12.7274         85
  12.7460         75
  12.7646         73
  12.7832         83
  12.8018         75
  12.8203         73
  12.8389         87
  12.8575         68
  12.8761         84
  12.8946         63
  12.9132         86
  12.9318         75
  12.9504         67
  12.9689         75
  12.9875         81
  13.0061         81
  13.0247         69
  13.0432         64
  13.0618         82
  13.0804         67
  13.0990         77
  13.1175         76
  13.1361         78
  13.1547         64
  13.1733         70
  13.1918         86
  13.2104         81
  13.2290         66
  13.2476         70
  13.2661         81
  13.2847         73
  13.3033         74
  13.3219         85
  13.3404         78
  13.3590         82
  13.3776         63
  13.3962         75
  13.4147         82
  13.4333         85
  13.4519         73
  13.4705         76
  13.4890         64
  13.5076         70
  13.5262         62
  13.5448         69
  13.5634         80
  13.5819         80
  13.6005         82
  13.6191         70
  13.6377         63
  13.6562         59
  13.6748         62
  13.6934         76
  13.7120         71
  13.7305         79
  13.7491         83
  13.7677         73
  13.7863         53
  13.8048         95
  13.8234         77
  13.8420         65
  13.8606         70
  13.8791         83
  13.8977         55
  13.9163         60
  13.9349         75
  13.9534         74
  13.9720         50
  13.9906         72
  14.0092         73
  14.0277         75
  14.0463         63
  14.0649         66
  14.0835         73
  14.1020         53
  14.1206         67
  14.1392         58
  14.1578         68
  14.1763         66
  14.1949         63
  14.2135         52
  14.2321         65
  14.2506         67
  14.2692         60
  14.2878         60
  14.3064         62
  14.3250         55
  14.3435         64
  14.3621         57
  14.3807         66
  14.3993         77
  14.4178         76
  14.4364         65
  14.4550         64
  14.4736         61
  14.4921         66
  14.5107         63
  14.5293         74
  14.5479         58
  14.5664         71
  14.5850         59
  14.6036         57
  14.6222         53
  14.6407         57
  14.6593         62
  14.6779         55
  14.6965         64
  14.7150         63
  14.7336         54
  14.7522         63
  14.7708         59
  14.7893         57
  14.8079         67
  14.8265         59
  14.8451         51
  14.8636         60
  14.8822         51
  14.9008         57
  14.9194         60
  14.9379         60
  14.9565         73
  14.9751         67
  14.9937         58
  15.0122         60
  15.0308         64
  15.0494         62
  15.0680         75
  15.0866         77
  15.1051         58
  15.1237         59
  15.1423         63
  15.1609         79
  15.1794         70
  15.1980         51
  15.2166         68
  15.2352         71
  15.2537         64
  15.2723         55
  15.2909         64
  15.3095         67
  15.3280         65
  15.3466         72
  15.3652         62
  15.3838         59
  15.4023         55
  15.4209         69
  15.4395         63
  15.4581         64
  15.4766         65
  15.4952         61
  15.5138         47
  15.5324         76
  15.5509         75
  15.5695         63
  15.5881         59
  15.6067         55
  15.6252         58
  15.6438         67
  15.6624         52
  15.6810         78
  15.6995         58
  15.7181         61
  15.7367         68
  15.7553         59
  15.7738         56
  15.7924         48
  15.8110         62
  15.8296         51
  15.8482         49
  15.8667         56
  15.8853         57
  15.9039         56
  15.9225         63
  15.9410         66
  15.9596         86
  15.9782         64
  15.9968         54
  16.0153         41
  16.0339         61
  16.0525         68
  16.0711         61
  16.0896         53
  16.1082         52
  16.1268         52
  16.1454         60
  16.1639         56
  16.1825         62
  16.2011         73
  16.2197         53
  16.2382         55
  16.2568         58
  16.2754         68
  16.2940         61
  16.3125         41
  16.3311         59
  16.3497         67
  16.3683         63
  16.3868         58
  16.4054         66
  16.4240         56
  16.4426         82
  16.4611         62
  16.4797         59
  16.4983         52
  16.5169         54
  16.5354         53
  16.5540         75
  16.5726         58
  16.5912         70
  16.6097         63
  16.6283         68
  16.6469         59
  16.6655         62
  16.6841         61
  16.7026         61
  16.7212         55
  16.7398         62
  16.7584         49
  16.7769         52
  16.7955         71
  16.8141         74
  16.8327         66
  16.8512         67
  16.8698         63
  16.8884         55
  16.9070         64
  16.9255         53
  16.9441         56
  16.9627         64
  16.9813         63
  16.9998         56
  17.0184         64
  17.0370         59
  17.0556         48
  17.0741         62
  17.0927         73
  17.1113         53
  17.1299         57
  17.1484         52
  17.1670         62
  17.1856         65
  17.2042         56
  17.2227         55
  17.2413         56
  17.2599         74
  17.2785         63
  17.2970         54
  17.3156         53
  17.3342         62
  17.3528         75
  17.3713         47
  17.3899         39
  17.4085         78
  17.4271         67
  17.4457         59
  17.4642         54
  17.4828         73
  17.5014         53
  17.5200         64
  17.5385         64
  17.5571         70
  17.5757         65
  17.5943         60
  17.6128         57
  17.6314         67
  17.6500         59
  17.6686         56
  17.6871         53
  17.7057         53
  17.7243         57
  17.7429         66
  17.7614         60
  17.7800         64
  17.7986         59
  17.8172         57
  17.8357         65
  17.8543         48
  17.8729         44
  17.8915         45
  17.9100         68
  17.9286         52
  17.9472         59
  17.9658         54
  17.9843         51
  18.0029         52
  18.0215         60
  18.0401         60
  18.0586         58
  18.0772         57
  18.0958         65
  18.1144         60
  18.1329         65
  18.1515         58
  18.1701         63
  18.1887         64
  18.2073         52
  18.2258         56
  18.2444         51
  18.2630         50
  18.2816         50
  18.3001         56
  18.3187         68
  18.3373         61
  18.3559         70
  18.3744         55
  18.3930         68
  18.4116         61
  18.4302         52
  18.4487         44
  18.4673         73
  18.4859         61
  18.5045         68
  18.5230         63
  18.5416         54
  18.5602         70
  18.5788         71
  18.5973         63
  18.6159         59
  18.6345         71
  18.6531         66
  18.6716         62
  18.6902         65
  18.7088         50
  18.7274         65
  18.7459         62
  18.7645         64
  18.7831         70
  18.8017         67
  18.8202         50
  18.8388         56
  18.8574         62
  18.8760         57
  18.8945         58
  18.9131         74
  18.9317         56
  18.9503         71
  18.9689         60
  18.9874         70
  19.0060         67
  19.0246         67
  19.0432         78
  19.0617         69
  19.0803         64
  19.0989         61
  19.1175         68
  19.1360         53
  19.1546         65
  19.1732         64
  19.1918         63
  19.2103         71
  19.2289         78
  19.2475         66
  19.2661         58
  19.2846         71
  19.3032         64
  19.3218         69
  19.3404         61
  19.3589         65
  19.3775         83
  19.3961         68
  19.4147         66
  19.4332         56
  19.4518         65
  19.4704         72
  19.4890         74
  19.5075         63
  19.5261         54
  19.5447         54
  19.5633         56
  19.5818         63
  19.6004         61
  19.6190         65
  19.6376         57
  19.6561         57
  19.6747         66
  19.6933         59
  19.7119         63
  19.7305         79
  19.7490         59
  19.7676         62
  19.7862         66
  19.8048         64
  19.8233         68
  19.8419         64
  19.8605         69
  19.8791         62
  19.8976         60
  19.9162         85
  19.9348         80
  19.9534         75
  19.9719         66
  19.9905         73
  20.0091         62
  20.0277         76
  20.0462         65
  20.0648         65
  20.0834         81
  20.1020         85
  20.1205         81
  20.1391         76
  20.1577         54
  20.1763         69
  20.1948         64
  20.2134         64
  20.2320         68
  20.2506         63
  20.2691         81
  20.2877         66
  20.3063         55
  20.3249         74
  20.3434         63
  20.3620         71
  20.3806         78
  20.3992         72
  20.4177         72
  20.4363         67
  20.4549         71
  20.4735         69
  20.4921         73
  20.5106         75
  20.5292         74
  20.5478         64
  20.5664         69
  20.5849         65
  20.6035         76
  20.6221         58
  20.6407         76
  20.6592         62
  20.6778         75
  20.6964         67
  20.7150         74
  20.7335         60
  20.7521         65
  20.7707         71
  20.7893         82
  20.8078         69
  20.8264         66
  20.8450         75
  20.8636         79
  20.8821         80
  20.9007         63
  20.9193         60
  20.9379         79
  20.9564         93
  20.9750         72
  20.9936         61
  21.0122         75
  21.0307         79
  21.0493         58
  21.0679         85
  21.0865         75
  21.1050         89
  21.1236         69
  21.1422         59
  21.1608         97
  21.1793         86
  21.1979        109
  21.2165        129
  21.2351        121
  21.2537        126
  21.2722        109
  21.2908        102
  21.3094        117
  21.3280        130
  21.3465        217
  21.3651        191
  21.3837        134
  21.4023        134
  21.4208        135
  21.4394         84
  21.4580         97
  21.4766         86
  21.4951         89
  21.5137         68
  21.5323         61
  21.5509         76
  21.5694         91
  21.5880         69
  21.6066         76
  21.6252         75
  21.6437         60
  21.6623         70
  21.6809         67
  21.6995         59
  21.7180         69
  21.7366         60
  21.7552         70
  21.7738         63
  21.7923         74
  21.8109         84
  21.8295         52
  21.8481         79
  21.8666         86
  21.8852         79
  21.9038         80
  21.9224         76
  21.9409         48
  21.9595         58
  21.9781         82
  21.9967         74
  22.0152         68
  22.0338         74
  22.0524         78
  22.0710         63
  22.0896         65
  22.1081         68
  22.1267         80
  22.1453         72
  22.1639         61
  22.1824         81
  22.2010         84
  22.2196         57
  22.2382         82
  22.2567         70
  22.2753         79
  22.2939         67
  22.3125         73
  22.3310         66
  22.3496         88
  22.3682         81
  22.3868         74
  22.4053         68
  22.4239         72
  22.4425         82
  22.4611         79
  22.4796         63
  22.4982         71
  22.5168         81
  22.5354         73
  22.5539         73
  22.5725         70
  22.5911         73
  22.6097         62
  22.6282         77
  22.6468         66
  22.6654         68
  22.6840         69
  22.7025         82
  22.7211         52
  22.7397         63
  22.7583         85
  22.7768         71
  22.7954         73
  22.8140         64
  22.8326         71
  22.8512         68
  22.8697         62
  22.8883         75
  22.9069         73
  22.9255         76
  22.9440         87
  22.9626         85
  22.9812         80
  22.9998         74
  23.0183         74
  23.0369         74
  23.0555         82
  23.0741         73
  23.0926         90
  23.1112         71
  23.1298         68
  23.1484         57
  23.1669         72
  23.1855         88
  23.2041         72
  23.2227         65
  23.2412         62
  23.2598         71
  23.2784         93
  23.2970         80
  23.3155         62
  23.3341         60
  23.3527         79
  23.3713         81
  23.3898         84
  23.4084         65
  23.4270         51
  23.4456         71
  23.4641         72
  23.4827         83
  23.5013         74
  23.5199         78
  23.5384         67
  23.5570         64
  23.5756         64
  23.5942         70
  23.6128         64
  23.6313         62
  23.6499         70
  23.6685         69
  23.6871         57
  23.7056         75
  23.7242         76
  23.7428         62
  23.7614         68
  23.7799         69
  23.7985        101
  23.8171         75
  23.8357         75
  23.8542         87
  23.8728         72
  23.8914         77
  23.9100         73
  23.9285         66
  23.9471         75
  23.9657         47
  23.9843         58
  24.0028         72
  24.0214         69
  24.0400         61
  24.0586         84
  24.0771         69
  24.0957         70
  24.1143         76
  24.1329         81
  24.1514         71
  24.1700         73
  24.1886         85
  24.2072         77
  24.2257         88
  24.2443         73
  24.2629         75
  24.2815         77
  24.3000         66
  24.3186         92
  24.3372         81
  24.3558         71
  24.3744         52
  24.3929         63
  24.4115         64
  24.4301         73
  24.4487         72
  24.4672         82
  24.4858         67
  24.5044         78
  24.5230         70
  24.5415         48
  24.5601         93
  24.5787         77
  24.5973         72
  24.6158         63
  24.6344         75
  24.6530         62
  24.6716         66
  24.6901         80
  24.7087         86
  24.7273         61
  24.7459         63
  24.7644         94
  24.7830         88
  24.8016         72
  24.8202         69
  24.8387         70
  24.8573         81
  24.8759         63
  24.8945         71
  24.9130         67
  24.9316         75
  24.9502         65
  24.9688         68
  24.9873         64
  25.0059         87
  25.0245         68
  25.0431         81
  25.0616         69
  25.0802         69
  25.0988         76
  25.1174         69
  25.1360         70
  25.1545         75
  25.1731         69
  25.1917         79
  25.2103         71
  25.2288         74
  25.2474         74
  25.2660         86
  25.2846         73
  25.3031         76
  25.3217         83
  25.3403         70
  25.3589         61
  25.3774         60
  25.3960         74
  25.4146         80
  25.4332         67
  25.4517         66
  25.4703         70
  25.4889         53
  25.5075         82
  25.5260         78
  25.5446         67
  25.5632         70
  25.5818         63
  25.6003         72
  25.6189         58
  25.6375         73
  25.6561         66
  25.6746         78
  25.6932         67
  25.7118         73
  25.7304         81
  25.7489         70
  25.7675         61
  25.7861         63
  25.8047         75
  25.8232         78
  25.8418         80
  25.8604         65
  25.8790         66
  25.8976         80
  25.9161         63
  25.9347         66
  25.9533         72
  25.9719         86
  25.9904         64
  26.0090         52
  26.0276         63
  26.0462         76
  26.0647         68
  26.0833         73
  26.1019         80
  26.1205         78
  26.1390         82
  26.1576         76
  26.1762         63
  26.1948         58
  26.2133         68
  26.2319         56
  26.2505         66
  26.2691         72
  26.2876         77
  26.3062         69
  26.3248         71
  26.3434         70
  26.3619         65
  26.3805         88
  26.3991         66
  26.4177         63
  26.4362         77
  26.4548         70
  26.4734         55
  26.4920         86
  26.5105         57
  26.5291         75
  26.5477         71
  26.5663         63
  26.5848         44
  26.6034         69
  26.6220         83
  26.6406         72
  26.6591         66
  26.6777         70
  26.6963         73
  26.7149         58
  26.7335         68
  26.7520         68
  26.7706         61
  26.7892         57
  26.8078         71
  26.8263         71
  26.8449         45
  26.8635         71
  26.8821         68
  26.9006         73
  26.9192         68
  26.9378         65
  26.9564         73
  26.9749         73
  26.9935         68
  27.0121         69
  27.0307         71
  27.0492         74
  27.0678         62
  27.0864         77
  27.1050         83
  27.1235         85
  27.1421         58
  27.1607         82
  27.1793         82
  27.1978         93
  27.2164         78
  27.2350         84
  27.2536         67
  27.2721         89
  27.2907         90
  27.3093         69
  27.3279         59
  27.3464         70
  27.3650         70
  27.3836         72
  27.4022         59
  27.4207         63
  27.4393         74
  27.4579         63
  27.4765         70
  27.4951         80
  27.5136         65
  27.5322         52
  27.5508         73
  27.5694         83
  27.5879         66
  27.6065         66
  27.6251         63
  27.6437         67
  27.6622         61
  27.6808         63
  27.6994         63
  27.7180         77
  27.7365         69
  27.7551         70
  27.7737         71
  27.7923         74
  27.8108         69
  27.8294         70
  27.8480         59
  27.8666         66
  27.8851         70
  27.9037         87
  27.9223         64
  27.9409         72
  27.9594         74
  27.9780         63
  27.9966         75
  28.0152         70
  28.0337         59
  28.0523         63
  28.0709         53
  28.0895         59
  28.1080         63
  28.1266         65
  28.1452         69
  28.1638         56
  28.1823         51
  28.2009         59
  28.2195         51
  28.2381         67
  28.2567         61
  28.2752         54
  28.2938         54
  28.3124         69
  28.3310         64
  28.3495         63
  28.3681         65
  28.3867         57
  28.4053         64
  28.4238         65
  28.4424         67
  28.4610         56
  28.4796         61
  28.4981         55
  28.5167         77
  28.5353         59
  28.5539         71
  28.5724         70
  28.5910         57
  28.6096         69
  28.6282         67
  28.6467         60
  28.6653         68
  28.6839         58
  28.7025         62
  28.7210         77
  28.7396         68
  28.7582         62
  28.7768         66
  28.7953         57
  28.8139         63
  28.8325         55
  28.8511         77
  28.8696         62
  28.8882         55
  28.9068         74
  28.9254         54
  28.9439         52
  28.9625         65
  28.9811         66
  28.9997         71
  29.0183         53
  29.0368         60
  29.0554         48
  29.0740         68
  29.0926         55
  29.1111         56
  29.1297         64
  29.1483         52
  29.1669         52
  29.1854         63
  29.2040         55
  29.2226         45
  29.2412         61
  29.2597         54
  29.2783         58
  29.2969         58
  29.3155         61
  29.3340         58
  29.3526         58
  29.3712         70
  29.3898         48
  29.4083         61
  29.4269         60
  29.4455         59
  29.4641         57
  29.4826         51
  29.5012         63
  29.5198         64
  29.5384         53
  29.5569         48
  29.5755         48
  29.5941         55
  29.6127         71
  29.6312         67
  29.6498         48
  29.6684         72
  29.6870         48
  29.7055         45
  29.7241         62
  29.7427         62
  29.7613         52
  29.7799         57
  29.7984         57
  29.8170         46
  29.8356         64
  29.8542         58
  29.8727         58
  29.8913         61
  29.9099         54
  29.9285         57
  29.9470         57
  29.9656         58
  29.9842         57
  30.0028         74
  30.0213         64
  30.0399         63
  30.0585         58
  30.0771         54
  30.0956         48
  30.1142         70
  30.1328         62
  30.1514         62
  30.1699         56
  30.1885         65
  30.2071         67
  30.2257         55
  30.2442         50
  30.2628         76
  30.2814         68
  30.3000         63
  30.3185         68
  30.3371         82
  30.3557         94
  30.3743        113
  30.3928        126
  30.4114         82
  30.4300         85
  30.4486         97
  30.4671         83
  30.4857         81
  30.5043         77
  30.5229         68
  30.5415         54
  30.5600         57
  30.5786         50
  30.5972         56
  30.6158         61
  30.6343         58
  30.6529         57
  30.6715         59
  30.6901         56
  30.7086         56
  30.7272         53
  30.7458         42
  30.7644         42
  30.7829         54
  30.8015         54
  30.8201         68
  30.8387         44
  30.8572         51
  30.8758         45
  30.8944         42
  30.9130         54
  30.9315         60
  30.9501         47
  30.9687         49
  30.9873         51
  31.0058         58
  31.0244         49
  31.0430         57
  31.0616         54
  31.0801         56
  31.0987         50
  31.1173         52
  31.1359         58
  31.1544         49
  31.1730         49
  31.1916         38
  31.2102         56
  31.2287         53
  31.2473         56
  31.2659         51
  31.2845         47
  31.3030         46
  31.3216         50
  31.3402         45
  31.3588         51
  31.3774         50
  31.3959         39
  31.4145         54
  31.4331         50
  31.4517         64
  31.4702         56
  31.4888         56
  31.5074         56
  31.5260         48
  31.5445         59
  31.5631         50
  31.5817         54
  31.6003         41
  31.6188         42
  31.6374         58
  31.6560         52
  31.6746         50
  31.6931         46
  31.7117         53
  31.7303         53
  31.7489         57
  31.7674         56
  31.7860         56
  31.8046         47
  31.8232         53
  31.8417         37
  31.8603         50
  31.8789         41
  31.8975         57
  31.9160         70
  31.9346         47
  31.9532         63
  31.9718         38
  31.9903         52
  32.0089         49
  32.0275         43
  32.0461         40
  32.0646         50
  32.0832         58
  32.1018         49
  32.1204         45
  32.1390         35
  32.1575         54
  32.1761         33
  32.1947         49
  32.2133         44
  32.2318         53
  32.2504         49
  32.2690         51
  32.2876         51
  32.3061         44
  32.3247         56
  32.3433         41
  32.3619         40
  32.3804         54
  32.3990         47
  32.4176         61
  32.4362         46
  32.4547         55
  32.4733         54
  32.4919         58
  32.5105         50
  32.5290         53
  32.5476         54
  32.5662         61
  32.5848         41
  32.6033         47
  32.6219         56
  32.6405         48
  32.6591         46
  32.6776         48
  32.6962         41
  32.7148         46
  32.7334         56
  32.7519         60
  32.7705         54
  32.7891         47
  32.8077         54
  32.8262         49
  32.8448         46
  32.8634         40
  32.8820         50
  32.9006         43
  32.9191         52
  32.9377         38
  32.9563         56
  32.9749         43
  32.9934         53
  33.0120         53
  33.0306         47
  33.0492         42
  33.0677         44
  33.0863         47
  33.1049         44
  33.1235         34
  33.1420         52
  33.1606         50
  33.1792         49
  33.1978         52
  33.2163         53
  33.2349         58
  33.2535         43
  33.2721         49
  33.2906         41
  33.3092         40
  33.3278         36
  33.3464         58
  33.3649         57
  33.3835         23
  33.4021         52
  33.4207         33
  33.4392         41
  33.4578         42
  33.4764         35
  33.4950         39
  33.5135         37
  33.5321         45
  33.5507         51
  33.5693         43
  33.5878         45
  33.6064         42
  33.6250         42
  33.6436         45
  33.6622         37
  33.6807         56
  33.6993         41
  33.7179         44
  33.7365         48
  33.7550         41
  33.7736         35
  33.7922         37
  33.8108         38
  33.8293         45
  33.8479         36
  33.8665         37
  33.8851         40
  33.9036         37
  33.9222         42
  33.9408         47
  33.9594         48
  33.9779         39
  33.9965         40
  34.0151         28
  34.0337         34
  34.0522         44
  34.0708         40
  34.0894         48
  34.1080         45
  34.1265         40
  34.1451         41
  34.1637         33
  34.1823         34
  34.2008         44
  34.2194         43
  34.2380         39
  34.2566         45
  34.2751         35
  34.2937         44
  34.3123         48
  34.3309         44
  34.3494         42
  34.3680         56
  34.3866         38
  34.4052         41
  34.4238         48
  34.4423         36
  34.4609         46
  34.4795         53
  34.4981         36
  34.5166         36
  34.5352         35
  34.5538         38
  34.5724         49
  34.5909         49
  34.6095         50
  34.6281         50
  34.6467         53
  34.6652         41
  34.6838         49
  34.7024         41
  34.7210         62
  34.7395         50
  34.7581         62
  34.7767         58
  34.7953         56
  34.8138         42
  34.8324         49
  34.8510         36
  34.8696         61
  34.8881         47
  34.9067         43
  34.9253         44
  34.9439         39
  34.9624         41
  34.9810         38
  34.9996         50
  35.0182         43
  35.0367         41
  35.0553         39
  35.0739         42
  35.0925         40
  35.1110         36
  35.1296         31
  35.1482         34
  35.1668         38
  35.1854         35
  35.2039         34
  35.2225         48
  35.2411         37
  35.2597         42
  35.2782         36
  35.2968         37
  35.3154         42
  35.3340         36
  35.3525         38
  35.3711         35
  35.3897         34
  35.4083         40
  35.4268         36
  35.4454         33
  35.4640         48
  35.4826         43
  35.5011         31
  35.5197         35
  35.5383         38
  35.5569         28
  35.5754         40
  35.5940         43
  35.6126         38
  35.6312         31
  35.6497         38
  35.6683         41
  35.6869         31
  35.7055         34
  35.7240         29
  35.7426         30
  35.7612         33
  35.7798         38
  35.7983         35
  35.8169         51
  35.8355         42
  35.8541         32
  35.8726         35
  35.8912         39
  35.9098         37
  35.9284         33
  35.9469         34
  35.9655         38
  35.9841         36
  36.0027         44
  36.0213         40
  36.0398         28
  36.0584         27
  36.0770         31
  36.0956         30
  36.1141         43
  36.1327         35
  36.1513         28
  36.1699         31
  36.1884         47
  36.2070         33
  36.2256         26
  36.2442         43
  36.2627         42
  36.2813         33
  36.2999         37
  36.3185         28
  36.3370         33
  36.3556         32
  36.3742         33
  36.3928         37
  36.4113         32
  36.4299         38
  36.4485         33
  36.4671         37
  36.4856         44
  36.5042         38
  36.5228         25
  36.5414         36
  36.5599         28
  36.5785         30
  36.5971         29
  36.6157         39
  36.6342         31
  36.6528         39
  36.6714         39
  36.6900         23
  36.7085         29
  36.7271         30
  36.7457         37
  36.7643         31
  36.7829         33
  36.8014         32
  36.8200         31
  36.8386         23
  36.8572         29
  36.8757         39
  36.8943         31
  36.9129         29
  36.9315         22
  36.9500         39
  36.9686         45
  36.9872         44
  37.0058         36
  37.0243         28
  37.0429         46
  37.0615         38
  37.0801         38
  37.0986         37
  37.1172         31
  37.1358         29
  37.1544         24
  37.1729         37
  37.1915         30
  37.2101         28
  37.2287         31
  37.2472         35
  37.2658         32
  37.2844         38
  37.3030         34
  37.3215         44
  37.3401         37
  37.3587         34
  37.3773         45
  37.3958         40
  37.4144         30
  37.4330         47
  37.4516         72
  37.4701         42
  37.4887         34
  37.5073         48
  37.5259         45
  37.5445         37
  37.5630         39
  37.5816         33
  37.6002         39
  37.6188         41
  37.6373         34
  37.6559         34
  37.6745         31
  37.6931         23
  37.7116         23
  37.7302         42
  37.7488         38
  37.7674         41
  37.7859         28
  37.8045         28
  37.8231         45
  37.8417         31
  37.8602         22
  37.8788         38
  37.8974         30
  37.9160         26
  37.9345         30
  37.9531         25
  37.9717         38
  37.9903         25
  38.0088         33
  38.0274         22
  38.0460         31
  38.0646         29
  38.0831         26
  38.1017         27
  38.1203         35
  38.1389         32
  38.1574         34
  38.1760         26
  38.1946         29
  38.2132         18
  38.2317         28
  38.2503         35
  38.2689         30
  38.2875         37
  38.3061         31
  38.3246         33
  38.3432         37
  38.3618         28
  38.3804         39
  38.3989         31
  38.4175         33
  38.4361         28
  38.4547         30
  38.4732         21
  38.4918         27
  38.5104         36
  38.5290         36
  38.5475         27
  38.5661         25
  38.5847         31
  38.6033         18
  38.6218         37
  38.6404         28
  38.6590         28
  38.6776         30
  38.6961         32
  38.7147         35
  38.7333         25
  38.7519         27
  38.7704         33
  38.7890         25
  38.8076         37
  38.8262         37
  38.8447         37
  38.8633         30
  38.8819         35
  38.9005         28
  38.9190         33
  38.9376         40
  38.9562         27
  38.9748         30
  38.9933         33
  39.0119         28
  39.0305         43
  39.0491         23
  39.0677         24
  39.0862         31
  39.1048         37
  39.1234         23
  39.1420         41
  39.1605         19
  39.1791         37
  39.1977         35
  39.2163         29
  39.2348         31
  39.2534         37
  39.2720         24
  39.2906         30
  39.3091         31
  39.3277         31
  39.3463         29
  39.3649         22
  39.3834         35
  39.4020         30
  39.4206         25
  39.4392         29
  39.4577         24
  39.4763         26
  39.4949         25
  39.5135         35
  39.5320         25
  39.5506         25
  39.5692         27
  39.5878         24
  39.6063         23
  39.6249         32
  39.6435         31
  39.6621         32
  39.6806         34
  39.6992         29
  39.7178         28
  39.7364         31
  39.7549         28
  39.7735         28
  39.7921         29
  39.8107         29
  39.8293         24
  39.8478         28
  39.8664         29
  39.8850         24
  39.9036         29
  39.9221         34
  39.9407         23
  39.9593         46
  39.9779         41
  39.9964         28
  40.0150         29
  40.0336         23
  40.0522         26
  40.0707         20
  40.0893         30
  40.1079         32
  40.1265         22
  40.1450         27
  40.1636         31
  40.1822         37
  40.2008         34
  40.2193         23
  40.2379         25
  40.2565         27
  40.2751         22
  40.2936         32
  40.3122         21
  40.3308         26
  40.3494         32
  40.3679         25
  40.3865         29
  40.4051         27
  40.4237         29
  40.4422         26
  40.4608         25
  40.4794         23
  40.4980         36
  40.5165         34
  40.5351         21
  40.5537         24
  40.5723         27
  40.5908         26
  40.6094         31
  40.6280         35
  40.6466         29
  40.6652         27
  40.6837         22
  40.7023         26
  40.7209         24
  40.7395         24
  40.7580         21
  40.7766         30
  40.7952         35
  40.8138         25
  40.8323         35
  40.8509         27
  40.8695         30
  40.8881         33
  40.9066         24
  40.9252         37
  40.9438         30
  40.9624         25
  40.9809         21
  40.9995         21
  41.0181         39
  41.0367         29
  41.0552         34
  41.0738         37
  41.0924         38
  41.1110         42
  41.1295         32
  41.1481         35
  41.1667         31
  41.1853         24
  41.2038         20
  41.2224         37
  41.2410         25
  41.2596         25
  41.2781         28
  41.2967         53
  41.3153         24
  41.3339         30
  41.3524         23
  41.3710         37
  41.3896         25
  41.4082         25
  41.4268         30
  41.4453         34
  41.4639         24
  41.4825         28
  41.5011         25
  41.5196         24
  41.5382         29
  41.5568         18
  41.5754         26
  41.5939         29
  41.6125         25
  41.6311         33
  41.6497         27
  41.6682         33
  41.6868         24
  41.7054         28
  41.7240         28
  41.7425         24
  41.7611         31
  41.7797         35
  41.7983         37
  41.8168         32
  41.8354         25
  41.8540         19
  41.8726         29
  41.8911         19
  41.9097         32
  41.9283         26
  41.9469         25
  41.9654         25
  41.9840         24
  42.0026         24
  42.0212         21
  42.0397         22
  42.0583         22
  42.0769         26
  42.0955         25
  42.1140         26
  42.1326         27
  42.1512         30
  42.1698         31
  42.1884         23
  42.2069         31
  42.2255         14
  42.2441         25
  42.2627         26
  42.2812         24
  42.2998         25
  42.3184         19
  42.3370         29
  42.3555         25
  42.3741         25
  42.3927         31
  42.4113         25
  42.4298         26
  42.4484         23
  42.4670         34
  42.4856         25
  42.5041         26
  42.5227         27
  42.5413         35
  42.5599         29
  42.5784         34
  42.5970         34
  42.6156         43
  42.6342         33
  42.6527         23
  42.6713         32
  42.6899         19
  42.7085         39
  42.7270         39
  42.7456         32
  42.7642         28
  42.7828         25
  42.8013         25
  42.8199         30
  42.8385         20
  42.8571         31
  42.8756         21
  42.8942         25
  42.9128         36
  42.9314         26
  42.9500         30
  42.9685         25
  42.9871         25
  43.0057         27
  43.0243         35
  43.0428         26
  43.0614         32
  43.0800         25
  43.0986         23
  43.1171         27
  43.1357         17
  43.1543         22
  43.1729         27
  43.1914         27
  43.2100         23
  43.2286         38
  43.2472         28
  43.2657         35
  43.2843         22
  43.3029         28
  43.3215         31
  43.3400         30
  43.3586         47
  43.3772         35
  43.3958         32
  43.4143         30
  43.4329         26
  43.4515         31
  43.4701         32
  43.4886         36
  43.5072         54
  43.5258         44
  43.5444         37
  43.5629         29
  43.5815         42
  43.6001         41
  43.6187         36
  43.6372         32
  43.6558         33
  43.6744         26
  43.6930         27
  43.7116         35
  43.7301         33
  43.7487         31
  43.7673         28
  43.7859         34
  43.8044         22
  43.8230         26
  43.8416         24
  43.8602         29
  43.8787         34
  43.8973         28
  43.9159         23
  43.9345         30
  43.9530         30
  43.9716         22
  43.9902         28
  44.0088         27
  44.0273         29
  44.0459         33
  44.0645         20
  44.0831         32
  44.1016         25
  44.1202         30
  44.1388         25
  44.1574         22
  44.1759         26
  44.1945         23
  44.2131         21
  44.2317         27
  44.2502         33
  44.2688         21
  44.2874         22
  44.3060         32
  44.3245         20
  44.3431         22
  44.3617         28
  44.3803         28
  44.3988         22
  44.4174         30
  44.4360         35
  44.4546         22
  44.4732         23
  44.4917         31
  44.5103         30
  44.5289         26
  44.5475         30
  44.5660         20
  44.5846         26
  44.6032         30
  44.6218         33
  44.6403         23
  44.6589         20
  44.6775         30
  44.6961         21
  44.7146         30
  44.7332         32
  44.7518         25
  44.7704         28
  44.7889         29
  44.8075         25
  44.8261         25
  44.8447         35
  44.8632         32
  44.8818         17
  44.9004         22
  44.9190         41
  44.9375         37
  44.9561         22
  44.9747         27
  44.9933         27
  45.0118         35
  45.0304         19
  45.0490         27
  45.0676         28
  45.0861         25
  45.1047         17
  45.1233         21
  45.1419         33
  45.1604         24
  45.1790         14
  45.1976         25
  45.2162         24
  45.2347         17
  45.2533         12
  45.2719         22
  45.2905         13
  45.3091         38
  45.3276         37
  45.3462         23
  45.3648         28
  45.3834         23
  45.4019         31
  45.4205         28
  45.4391         27
  45.4577         31
  45.4762         25
  45.4948         28
  45.5134         24
  45.5320         16
  45.5505         18
  45.5691         34
  45.5877         22
  45.6063         25
  45.6248         21
  45.6434         22
  45.6620         26
  45.6806         31
  45.6991         18
  45.7177         20
  45.7363         23
  45.7549         26
  45.7734         19
  45.7920         23
  45.8106         26
  45.8292         22
  45.8477         28
  45.8663         25
  45.8849         25
  45.9035         23
  45.9220         16
  45.9406         23
  45.9592         30
  45.9778         28
  45.9963         24
  46.0149         35
  46.0335         31
  46.0521         34
  46.0707         37
  46.0892         18
  46.1078         26
  46.1264         27
  46.1450         19
  46.1635         16
  46.1821         25
  46.2007         25
  46.2193         26
  46.2378         20
  46.2564         15
  46.2750         27
  46.2936         13
  46.3121         22
  46.3307         22
  46.3493         21
  46.3679         20
  46.3864         35
  46.4050         20
  46.4236         21
  46.4422         37
  46.4607         21
  46.4793         31
  46.4979         22
  46.5165         18
  46.5350         14
  46.5536         19
  46.5722         24
  46.5908         27
  46.6093         25
  46.6279         15
  46.6465         21
  46.6651         22
  46.6836         18
  46.7022         19
  46.7208         32
  46.7394         25
  46.7579         23
  46.7765         25
  46.7951         30
  46.8137         33
  46.8323         23
  46.8508         24
  46.8694         17
  46.8880         23
  46.9066         29
  46.9251         18
  46.9437         20
  46.9623         13
  46.9809         21
  46.9994         23
  47.0180         25
  47.0366         25
  47.0552         23
  47.0737         13
  47.0923         31
  47.1109         21
  47.1295         24
  47.1480         26
  47.1666         25
  47.1852         24
  47.2038         30
  47.2223         20
  47.2409         29
  47.2595         29
  47.2781         16
  47.2966         17
  47.3152         18
  47.3338         23
  47.3524         28
  47.3709         27
  47.3895         27
  47.4081         16
  47.4267         20
  47.4452         17
  47.4638         23
  47.4824         19
  47.5010         17
  47.5195         28
  47.5381         21
  47.5567         19
  47.5753         25
  47.5939         30
  47.6124         28
  47.6310         28
  47.6496         25
  47.6682         20
  47.6867         22
  47.7053         28
  47.7239         22
  47.7425         20
  47.7610         24
  47.7796         23
  47.7982         21
  47.8168         18
  47.8353         29
  47.8539         24
  47.8725         21
  47.8911         20
  47.9096         24
  47.9282         38
  47.9468         22
  47.9654         16
  47.9839         27
  48.0025         23
  48.0211         15
  48.0397         19
  48.0582         21
  48.0768         25
  48.0954         18
  48.1140         18
  48.1325         29
  48.1511         17
  48.1697         27
  48.1883         30
  48.2068         32
  48.2254         16
  48.2440         39
  48.2626         15
  48.2811         25
  48.2997         20
  48.3183         18
  48.3369         19
  48.3555         22
  48.3740         35
  48.3926         30
  48.4112         22
  48.4298         18
  48.4483         26
  48.4669         25
  48.4855         22
  48.5041         21
  48.5226         24
  48.5412         24
  48.5598         19
  48.5784         14
  48.5969         33
  48.6155         24
  48.6341         18
  48.6527         27
  48.6712         22
  48.6898         17
  48.7084         18
  48.7270         16
  48.7455         21
  48.7641         29
  48.7827         27
  48.8013         24
  48.8198         26
  48.8384         20
  48.8570         21
  48.8756         24
  48.8941         22
  48.9127         31
  48.9313         35
  48.9499         37
  48.9684         39
  48.9870         41
  49.0056         32
  49.0242         37
  49.0427         31
  49.0613         32
  49.0799         32
  49.0985         32
  49.1171         28
  49.1356         17
  49.1542         18
  49.1728         17
  49.1914         23
  49.2099         24
  49.2285         23
  49.2471         12
  49.2657         21
  49.2842         20
  49.3028         27
  49.3214         23
  49.3400         23
  49.3585         24
  49.3771         29
  49.3957         25
  49.4143         27
  49.4328         28
  49.4514         19
  49.4700         25
  49.4886         28
  49.5071         21
  49.5257         21
  49.5443         29
  49.5629         20
  49.5814         26
  49.6000         30
  49.6186         24
  49.6372         20
  49.6557         23
  49.6743         25
  49.6929         16
  49.7115         23
  49.7300         31
  49.7486         22
  49.7672         20
  49.7858         21
  49.8043         19
  49.8229         23
  49.8415         22
  49.8601         28
  49.8786         19
  49.8972         23
  49.9158         29
  49.9344         33
  49.9530         26
  49.9715         24
  49.9901         24
  50.0087         18
  50.0273         20
  50.0458         20
  50.0644         16
  50.0830         25
  50.1016         24
  50.1201         27
  50.1387         24
  50.1573         21
  50.1759         27
  50.1944         30
  50.2130         20
  50.2316         35
  50.2502         20
  50.2687         29
  50.2873         23
  50.3059         18
  50.3245         30
  50.3430         26
  50.3616         27
  50.3802         18
  50.3988         26
  50.4173         16
  50.4359         18
  50.4545         34
  50.4731         23
  50.4916         29
  50.5102         17
  50.5288         27
  50.5474         21
  50.5659         16
  50.5845         21
  50.6031         24
  50.6217         20
  50.6402         17
  50.6588         20
  50.6774         22
  50.6960         21
  50.7146         22
  50.7331         27
  50.7517         21
  50.7703         27
  50.7889         24
  50.8074         27
  50.8260         23
  50.8446         26
  50.8632         20
  50.8817         26
  50.9003         22
  50.9189         18
  50.9375         20
  50.9560         19
  50.9746         26
  50.9932         24
  51.0118         24
  51.0303         13
  51.0489         21
  51.0675         28
  51.0861         20
  51.1046         28
  51.1232         21
  51.1418         24
  51.1604         21
  51.1789         24
  51.1975         21
  51.2161         17
  51.2347         22
  51.2532         22
  51.2718         21
  51.2904         17
  51.3090         21
  51.3275         23
  51.3461         21
  51.3647         31
  51.3833         24
  51.4018         11
  51.4204         26
  51.4390         32
  51.4576         16
  51.4762         19
  51.4947         10
  51.5133         29
  51.5319         27
  51.5505         17
  51.5690         27
  51.5876         19
  51.6062         16
  51.6248         26
  51.6433         28
  51.6619         23
  51.6805         20
  51.6991         20
  51.7176         25
  51.7362         19
  51.7548         27
  51.7734         25
  51.7919         20
  51.8105         34
  51.8291         26
  51.8477         23
  51.8662         26
  51.8848         33
  51.9034         24
  51.9220         25
  51.9405         26
  51.9591         21
  51.9777         23
  51.9963         32
  52.0148         17
  52.0334         27
  52.0520         23
  52.0706         24
  52.0891         23
  52.1077         19
  52.1263         30
  52.1449         20
  52.1634         29
  52.1820         19
  52.2006         21
  52.2192         23
  52.2378         20
  52.2563         19
  52.2749         22
  52.2935         13
  52.3121         25
  52.3306         15
  52.3492         18
  52.3678          7
  52.3864         23
  52.4049         20
  52.4235         22
  52.4421         17
  52.4607         20
  52.4792         24
  52.4978         22
  52.5164         24
  52.5350         21
  52.5535         18
  52.5721         29
  52.5907         24
  52.6093         26
  52.6278         19
  52.6464         14
  52.6650         29
  52.6836         27
  52.7021         24
  52.7207         18
  52.7393         17
  52.7579         17
  52.7764         29
  52.7950         27
  52.8136         19
  52.8322         18
  52.8507         16
  52.8693         20
  52.8879         14
  52.9065         22
  52.9250         19
  52.9436         26
  52.9622         19
  52.9808         16
  52.9994         24
  53.0179         28
  53.0365         14
  53.0551         16
  53.0737         21
  53.0922         22
  53.1108         19
  53.1294         27
  53.1480         26
  53.1665         24
  53.1851         29
  53.2037         19
  53.2223         24
  53.2408         20
  53.2594         18
  53.2780         14
  53.2966         25
  53.3151         21
  53.3337         17
  53.3523         25
  53.3709         17
  53.3894         23
  53.4080         21
  53.4266         23
  53.4452         16
  53.4637         31
  53.4823         16
  53.5009         17
  53.5195         27
  53.5380         11
  53.5566         17
  53.5752         29
  53.5938         19
  53.6123         16
  53.6309         19
  53.6495         15
  53.6681         22
  53.6866         14
  53.7052         14
  53.7238         18
  53.7424         23
  53.7610         28
  53.7795         23
  53.7981         12
  53.8167         18
  53.8353         26
  53.8538         21
  53.8724         12
  53.8910         29
  53.9096         25
  53.9281         24
  53.9467         25
  53.9653         28
  53.9839         30
  54.0024         22
  54.0210         28
  54.0396         21
  54.0582         25
  54.0767         25
  54.0953         20
  54.1139         18
  54.1325         30
  54.1510         24
  54.1696         21
  54.1882         23
  54.2068         20
  54.2253         28
  54.2439         16
  54.2625         17
  54.2811         23
  54.2996         29
  54.3182         25
  54.3368         28
  54.3554         22
  54.3739         20
  54.3925         29
  54.4111         20
  54.4297         20
  54.4482         17
  54.4668         18
  54.4854         20
  54.5040         19
  54.5225         14
  54.5411         15
  54.5597         21
  54.5783         23
  54.5969         24
  54.6154         28
  54.6340         26
  54.6526         17
  54.6712         18
  54.6897         16
  54.7083         24
  54.7269         31
  54.7455         24
  54.7640         21
  54.7826         24
  54.8012         23
  54.8198         12
  54.8383         28
  54.8569         18
  54.8755         20
  54.8941         11
  54.9126         16
  54.9312         23
  54.9498         22
  54.9684         18
  54.9869         13
  55.0055         22
  55.0241         12
  55.0427         16
  55.0612         17
  55.0798         25
  55.0984         26
  55.1170         16
  55.1355         18
  55.1541         21
  55.1727         17
  55.1913         16
  55.2098         18
  55.2284         21
  55.2470         21
  55.2656         17
  55.2841         16
  55.3027         16
  55.3213         16
  55.3399         14
  55.3585         26
  55.3770         22
  55.3956         20
  55.4142         17
  55.4328         19
  55.4513         27
  55.4699         30
  55.4885         23
  55.5071         17
  55.5256         22
  55.5442         26
  55.5628         23
  55.5814         16
  55.5999         15
  55.6185         31
  55.6371         20
  55.6557         32
  55.6742         22
  55.6928         16
  55.7114         25
  55.7300         21
  55.7485         17
  55.7671         24
  55.7857         23
  55.8043         15
  55.8228         27
  55.8414         21
  55.8600         22
  55.8786         27
  55.8971         18
  55.9157         14
  55.9343         20
  55.9529         13
  55.9714         16
  55.9900         25
  56.0086         16
  56.0272         20
  56.0457         20
  56.0643         18
  56.0829         18
  56.1015         20
  56.1201         22
  56.1386         18
  56.1572         23
  56.1758         14
  56.1944         31
  56.2129         26
  56.2315         22
  56.2501         18
  56.2687         24
  56.2872         18
  56.3058         25
  56.3244         18
  56.3430         18
  56.3615         23
  56.3801         16
  56.3987         22
  56.4173         21
  56.4358         29
  56.4544         29
  56.4730         20
  56.4916         20
  56.5101         12
  56.5287         21
  56.5473         23
  56.5659         23
  56.5844         22
  56.6030         22
  56.6216         20
  56.6402         22
  56.6587         20
  56.6773         27
  56.6959         19
  56.7145         18
  56.7330         23
  56.7516         24
  56.7702         23
  56.7888         23
  56.8073         27
  56.8259         16
  56.8445         18
  56.8631         19
  56.8817         22
  56.9002         26
  56.9188         14
  56.9374         19
  56.9560         12
  56.9745         18
  56.9931         25
  57.0117         21
  57.0303         21
  57.0488         30
  57.0674         21
  57.0860         15
  57.1046         20
  57.1231         16
  57.1417         26
  57.1603         15
  57.1789         17
  57.1974         23
  57.2160         16
  57.2346         16
  57.2532         19
  57.2717         22
  57.2903         25
  57.3089         23
  57.3275         18
  57.3460         17
  57.3646         18
  57.3832         15
  57.4018         22
  57.4203         14
  57.4389         26
  57.4575         16
  57.4761         19
  57.4946         16
  57.5132         18
  57.5318         23
  57.5504         18
  57.5689         17
  57.5875         26
  57.6061         19
  57.6247         18
  57.6433         21
  57.6618         26
  57.6804         29
  57.6990         18
  57.7176         22
  57.7361         17
  57.7547         17
  57.7733         18
  57.7919         23
  57.8104         25
  57.8290         18
  57.8476         17
  57.8662         20
  57.8847         25
  57.9033         27
  57.9219         28
  57.9405         16
  57.9590         14
  57.9776         21
  57.9962         26
  58.0148         16
  58.0333         17
  58.0519         20
  58.0705         23
  58.0891         22
  58.1076         25
  58.1262         22
  58.1448         19
  58.1634         18
  58.1819         27
  58.2005         21
  58.2191         17
  58.2377         18
  58.2562         26
  58.2748         24
  58.2934         15
  58.3120         22
  58.3305         17
  58.3491         25
  58.3677         18
  58.3863         20
  58.4049         17
  58.4234         20
  58.4420         22
  58.4606         18
  58.4792         21
  58.4977         24
  58.5163         19
  58.5349         26
  58.5535         23
  58.5720         14
  58.5906         20
  58.6092         21
  58.6278         25
  58.6463         22
  58.6649         17
  58.6835         24
  58.7021         32
  58.7206         24
  58.7392         22
  58.7578         27
  58.7764         16
  58.7949         22
  58.8135         24
  58.8321         15
  58.8507         23
  58.8692         19
  58.8878         23
  58.9064         13
  58.9250         25
  58.9435         24
  58.9621         16
  58.9807         25
  58.9993         23
  59.0178         26
  59.0364         25
  59.0550         15
  59.0736         19
  59.0921         31
  59.1107         19
  59.1293         13
  59.1479         27
  59.1664         18
  59.1850         21
  59.2036         14
  59.2222         28
  59.2408         21
  59.2593         25
  59.2779         18
  59.2965         21
  59.3151         23
  59.3336          9
  59.3522         20
  59.3708         26
  59.3894         18
  59.4079         26
  59.4265         22
  59.4451         17
  59.4637         23
  59.4822         14
  59.5008         19
  59.5194         18
  59.5380         23
  59.5565         22
  59.5751         18
  59.5937         19
  59.6123          8
  59.6308         24
  59.6494         19
  59.6680         18
  59.6866         20
  59.7051         21
  59.7237         26
  59.7423         17
  59.7609         21
  59.7794         11
  59.7980         22
  59.8166         19
  59.8352         21
  59.8537         21
  59.8723         21
  59.8909         22
  59.9095         19
  59.9280         14
  59.9466         18
  59.9652         20
  59.9838         18
  60.0024         15
