; (content of file Y:\Sam\Apurva-07-20-2022\puck2\ML_20220720_16_SJD_0_LaB6-1min.raw)
_FILEVERSION = 3
_SAMPLE = ML_20220720_16_SJD_0_LaB6-1mi
_+SAMPLE = 
_SITE = USA
_USER = Administrator
_GONIOMETER_CODE = 20
; Goniometer : D8 theta/2theta, stage : Unknown
_ATTACHMENTS_CODE = 0
_GONIOMETER_RADIUS = 200.5
_FIXED_DIVSLIT = 0.6
_FIXED_SAMPLESLIT = 0
_SOLLER_SLITS = 2
_FIXED_DETSLIT = 9.55
_MONOCHROMATOR = 0
; Incident beam monochromator : None
_SOLLER_SLITS_2 = N
_THIN_FILM = N
_BETA_FILTER = Y
_FIXED_ANTISLIT = 5.89
_ANALYZER_CODE = 0
; Received beam analyzer : None
_DATEMEASURED = "25-Jul-2022 18:16:10"
_WL_UNIT = A
_WL1 = 1.5406
_WL2 = 1.54439
_WL3 = 1.39222
_WLRATIO = 0.5
_ANODE = Cu
_V4_INF_CREATOR = XRDWizard
_V4_INF_CREATOR_VERSION = V2.9.0.22
_V4_INF_WIZARD_VERSION = V2.9.0.22
_V4_INF_WIZARD_ADDINS = V2.9.0.22
_V4_INF_WIZARD_DOCTYPE = XRD
_V4_INF_OSUSER = McQueenLab
_V4_INF_USER = Administrator
_V4_INF_SITE = USA
_V4_INF_SAMPLEID = ML_20220720_16_SJD_0_LaB6-1mi

; Data for range 1
_DRIVE = COUPLED
_STEPTIME = 4.23
_STEPSIZE = 0.0185756
_STEPMODE = C
_START = 5
_THETA = 2.5
_2THETA = 5
_KHI = 0
_PHI = 0
_X = 0
_Y = 0
_Z = 0
_DETECTOR = 5
; Detector type : Unknown
_DETECTORSLIT = unkn
_AUX1 = 0
_AUX2 = 0
_AUX3 = 0
_TIMESTARTED = 15
_TEMP_RATE = -1
_TEMP_DELAY = -1
_KV = 40
_MA = 40
_RANGE_WL = 1.5406
_3DPLANE = 0
_V4_ADDITIONALDETECTOR = 257
_V4_PSD2THETA = 3.3706
_V4_PSDCHANNEL1 = 0
_V4_PSDAPERTURE = 12.68
_V4_PSDTYPE = 5
_V4_PSDFIXED = 0
_V4_COUNTERS_MASK = 4096
_V4_DRIVES_MASK = 0
_V4_ENCODERS_MASK = 0
_2THETACOUNTS = 1
; 2THETA  PSD
   5.0000         90
   5.0186         88
   5.0372         89
   5.0557         89
   5.0743         92
   5.0929         99
   5.1115         97
   5.1300        106
   5.1486         98
   5.1672         85
   5.1858        106
   5.2043         84
   5.2229         95
   5.2415         88
   5.2601         79
   5.2786         72
   5.2972         87
   5.3158         93
   5.3344         84
   5.3529         83
   5.3715         84
   5.3901         86
   5.4087         86
   5.4272         73
   5.4458        104
   5.4644         93
   5.4830         65
   5.5015         93
   5.5201         90
   5.5387        106
   5.5573         85
   5.5758         81
   5.5944         79
   5.6130         71
   5.6316         76
   5.6501         75
   5.6687         71
   5.6873         71
   5.7059         93
   5.7244         88
   5.7430         82
   5.7616         85
   5.7802         89
   5.7988         77
   5.8173         74
   5.8359         81
   5.8545         70
   5.8731         75
   5.8916         88
   5.9102         71
   5.9288         73
   5.9474         71
   5.9659         81
   5.9845         77
   6.0031         67
   6.0217         84
   6.0402         74
   6.0588         70
   6.0774         83
   6.0960         90
   6.1145         61
   6.1331         81
   6.1517         81
   6.1703         65
   6.1888         61
   6.2074         69
   6.2260         62
   6.2446         69
   6.2631         80
   6.2817         62
   6.3003         59
   6.3189         69
   6.3374         73
   6.3560         71
   6.3746         65
   6.3932         64
   6.4117         58
   6.4303         78
   6.4489         64
   6.4675         70
   6.4860         67
   6.5046         52
   6.5232         66
   6.5418         70
   6.5604         68
   6.5789         71
   6.5975         68
   6.6161         65
   6.6347         86
   6.6532         47
   6.6718         48
   6.6904         59
   6.7090         76
   6.7275         58
   6.7461         66
   6.7647         57
   6.7833         60
   6.8018         56
   6.8204         62
   6.8390         72
   6.8576         62
   6.8761         51
   6.8947         56
   6.9133         71
   6.9319         47
   6.9504         55
   6.9690         60
   6.9876         46
   7.0062         58
   7.0247         57
   7.0433         49
   7.0619         65
   7.0805         56
   7.0990         54
   7.1176         54
   7.1362         67
   7.1548         54
   7.1733         62
   7.1919         53
   7.2105         64
   7.2291         61
   7.2476         64
   7.2662         62
   7.2848         67
   7.3034         56
   7.3220         75
   7.3405         60
   7.3591         44
   7.3777         57
   7.3963         57
   7.4148         63
   7.4334         64
   7.4520         46
   7.4706         49
   7.4891         55
   7.5077         56
   7.5263         67
   7.5449         70
   7.5634         71
   7.5820         74
   7.6006         62
   7.6192         48
   7.6377         53
   7.6563         61
   7.6749         69
   7.6935         63
   7.7120         59
   7.7306         76
   7.7492         85
   7.7678         72
   7.7863         72
   7.8049         74
   7.8235         66
   7.8421         51
   7.8606         71
   7.8792         71
   7.8978         63
   7.9164         68
   7.9349         52
   7.9535         76
   7.9721         64
   7.9907         52
   8.0092         64
   8.0278         64
   8.0464         65
   8.0650         66
   8.0835         55
   8.1021         67
   8.1207         82
   8.1393         79
   8.1579         77
   8.1764         70
   8.1950         79
   8.2136         64
   8.2322         73
   8.2507         74
   8.2693         87
   8.2879         71
   8.3065         61
   8.3250         77
   8.3436         69
   8.3622         65
   8.3808         75
   8.3993         61
   8.4179         77
   8.4365         63
   8.4551         70
   8.4736         72
   8.4922         67
   8.5108         75
   8.5294         76
   8.5479         80
   8.5665         75
   8.5851         67
   8.6037         73
   8.6222         74
   8.6408         69
   8.6594         97
   8.6780         76
   8.6965         69
   8.7151         83
   8.7337         75
   8.7523         84
   8.7708         70
   8.7894         57
   8.8080         72
   8.8266         72
   8.8451         78
   8.8637         82
   8.8823         76
   8.9009         67
   8.9195         67
   8.9380         80
   8.9566         70
   8.9752         74
   8.9938         74
   9.0123         81
   9.0309         68
   9.0495        101
   9.0681         88
   9.0866         96
   9.1052         90
   9.1238         83
   9.1424         85
   9.1609         79
   9.1795         90
   9.1981         85
   9.2167         62
   9.2352         74
   9.2538         88
   9.2724         93
   9.2910         81
   9.3095         78
   9.3281         87
   9.3467         71
   9.3653         70
   9.3838         74
   9.4024         84
   9.4210         81
   9.4396         77
   9.4581         64
   9.4767         93
   9.4953         76
   9.5139         80
   9.5324         98
   9.5510         84
   9.5696         94
   9.5882         87
   9.6067         77
   9.6253        101
   9.6439         81
   9.6625         65
   9.6811         95
   9.6996         84
   9.7182         82
   9.7368         84
   9.7554         92
   9.7739         90
   9.7925        101
   9.8111         86
   9.8297        105
   9.8482         77
   9.8668         90
   9.8854         85
   9.9040         97
   9.9225         92
   9.9411         88
   9.9597         77
   9.9783         92
   9.9968         76
  10.0154         92
  10.0340         86
  10.0526         99
  10.0711         82
  10.0897         75
  10.1083        108
  10.1269         95
  10.1454        101
  10.1640         87
  10.1826         82
  10.2012        106
  10.2197         85
  10.2383        105
  10.2569         92
  10.2755         94
  10.2940         85
  10.3126         89
  10.3312        100
  10.3498         85
  10.3683        107
  10.3869         83
  10.4055         79
  10.4241         82
  10.4427         79
  10.4612         93
  10.4798        102
  10.4984         88
  10.5170         95
  10.5355         90
  10.5541         87
  10.5727        113
  10.5913         92
  10.6098         87
  10.6284         91
  10.6470         89
  10.6656         97
  10.6841        101
  10.7027         84
  10.7213         76
  10.7399         80
  10.7584        105
  10.7770         94
  10.7956        113
  10.8142         91
  10.8327        104
  10.8513         83
  10.8699         83
  10.8885         91
  10.9070         63
  10.9256         87
  10.9442         73
  10.9628         91
  10.9813         87
  10.9999         82
  11.0185         93
  11.0371         89
  11.0556         84
  11.0742         94
  11.0928         80
  11.1114         96
  11.1299         88
  11.1485         86
  11.1671         79
  11.1857         89
  11.2043         87
  11.2228         87
  11.2414         92
  11.2600         92
  11.2786         86
  11.2971        100
  11.3157         78
  11.3343         98
  11.3529         74
  11.3714         87
  11.3900         75
  11.4086         93
  11.4272         98
  11.4457         76
  11.4643         77
  11.4829         89
  11.5015         71
  11.5200        114
  11.5386        100
  11.5572         70
  11.5758        114
  11.5943         70
  11.6129         77
  11.6315         94
  11.6501        108
  11.6686        103
  11.6872         71
  11.7058         85
  11.7244        104
  11.7429         95
  11.7615        101
  11.7801         85
  11.7987         86
  11.8172         74
  11.8358         89
  11.8544         83
  11.8730         86
  11.8915         76
  11.9101        104
  11.9287         85
  11.9473         88
  11.9659         94
  11.9844         63
  12.0030         99
  12.0216         79
  12.0402         68
  12.0587         75
  12.0773         72
  12.0959         86
  12.1145         81
  12.1330         68
  12.1516         95
  12.1702         79
  12.1888         80
  12.2073         77
  12.2259         83
  12.2445         77
  12.2631         75
  12.2816         70
  12.3002         85
  12.3188         91
  12.3374         88
  12.3559         74
  12.3745         88
  12.3931         58
  12.4117         73
  12.4302         74
  12.4488         84
  12.4674         95
  12.4860         75
  12.5045         90
  12.5231         77
  12.5417         81
  12.5603         75
  12.5788         81
  12.5974         62
  12.6160         80
  12.6346         93
  12.6531         71
  12.6717         78
  12.6903         85
  12.7089         75
  12.7274         83
  12.7460         96
  12.7646         76
  12.7832         91
  12.8018         77
  12.8203         74
  12.8389         74
  12.8575         90
  12.8761         87
  12.8946         63
  12.9132         70
  12.9318         72
  12.9504         48
  12.9689         90
  12.9875         60
  13.0061         86
  13.0247         62
  13.0432         66
  13.0618         96
  13.0804         71
  13.0990         90
  13.1175         73
  13.1361         67
  13.1547         68
  13.1733         57
  13.1918         79
  13.2104         79
  13.2290         77
  13.2476         74
  13.2661         84
  13.2847         75
  13.3033         62
  13.3219         67
  13.3404         79
  13.3590         79
  13.3776         58
  13.3962         78
  13.4147         69
  13.4333         68
  13.4519         65
  13.4705         65
  13.4890         71
  13.5076         84
  13.5262         71
  13.5448         79
  13.5634         80
  13.5819         68
  13.6005         74
  13.6191         81
  13.6377         63
  13.6562         66
  13.6748         64
  13.6934         73
  13.7120         73
  13.7305         63
  13.7491         56
  13.7677         66
  13.7863         80
  13.8048         78
  13.8234         75
  13.8420         55
  13.8606         67
  13.8791         69
  13.8977         63
  13.9163         66
  13.9349         62
  13.9534         68
  13.9720         68
  13.9906         69
  14.0092         74
  14.0277         65
  14.0463         67
  14.0649         74
  14.0835         72
  14.1020         72
  14.1206         56
  14.1392         69
  14.1578         77
  14.1763         68
  14.1949         58
  14.2135         74
  14.2321         83
  14.2506         63
  14.2692         65
  14.2878         69
  14.3064         56
  14.3250         63
  14.3435         73
  14.3621         61
  14.3807         76
  14.3993         71
  14.4178         66
  14.4364         73
  14.4550         72
  14.4736         60
  14.4921         68
  14.5107         66
  14.5293         57
  14.5479         59
  14.5664         72
  14.5850         63
  14.6036         63
  14.6222         58
  14.6407         58
  14.6593         74
  14.6779         52
  14.6965         55
  14.7150         64
  14.7336         55
  14.7522         71
  14.7708         58
  14.7893         70
  14.8079         53
  14.8265         71
  14.8451         67
  14.8636         62
  14.8822         66
  14.9008         70
  14.9194         51
  14.9379         59
  14.9565         70
  14.9751         64
  14.9937         67
  15.0122         62
  15.0308         55
  15.0494         63
  15.0680         61
  15.0866         64
  15.1051         63
  15.1237         64
  15.1423         61
  15.1609         68
  15.1794         60
  15.1980         56
  15.2166         49
  15.2352         57
  15.2537         60
  15.2723         60
  15.2909         55
  15.3095         56
  15.3280         67
  15.3466         68
  15.3652         61
  15.3838         56
  15.4023         56
  15.4209         72
  15.4395         80
  15.4581         66
  15.4766         59
  15.4952         59
  15.5138         63
  15.5324         66
  15.5509         60
  15.5695         59
  15.5881         51
  15.6067         51
  15.6252         40
  15.6438         44
  15.6624         71
  15.6810         53
  15.6995         59
  15.7181         57
  15.7367         49
  15.7553         51
  15.7738         56
  15.7924         66
  15.8110         66
  15.8296         65
  15.8482         68
  15.8667         65
  15.8853         57
  15.9039         73
  15.9225         54
  15.9410         58
  15.9596         50
  15.9782         53
  15.9968         45
  16.0153         57
  16.0339         70
  16.0525         63
  16.0711         60
  16.0896         58
  16.1082         69
  16.1268         51
  16.1454         56
  16.1639         63
  16.1825         69
  16.2011         63
  16.2197         67
  16.2382         54
  16.2568         57
  16.2754         46
  16.2940         56
  16.3125         52
  16.3311         62
  16.3497         51
  16.3683         62
  16.3868         57
  16.4054         65
  16.4240         49
  16.4426         60
  16.4611         74
  16.4797         59
  16.4983         48
  16.5169         53
  16.5354         59
  16.5540         58
  16.5726         76
  16.5912         46
  16.6097         39
  16.6283         57
  16.6469         72
  16.6655         56
  16.6841         54
  16.7026         57
  16.7212         59
  16.7398         50
  16.7584         52
  16.7769         53
  16.7955         73
  16.8141         59
  16.8327         47
  16.8512         55
  16.8698         64
  16.8884         51
  16.9070         48
  16.9255         64
  16.9441         60
  16.9627         53
  16.9813         50
  16.9998         48
  17.0184         77
  17.0370         60
  17.0556         74
  17.0741         57
  17.0927         54
  17.1113         64
  17.1299         56
  17.1484         60
  17.1670         62
  17.1856         48
  17.2042         76
  17.2227         65
  17.2413         50
  17.2599         69
  17.2785         59
  17.2970         62
  17.3156         53
  17.3342         67
  17.3528         64
  17.3713         58
  17.3899         59
  17.4085         64
  17.4271         65
  17.4457         65
  17.4642         68
  17.4828         57
  17.5014         60
  17.5200         59
  17.5385         54
  17.5571         54
  17.5757         59
  17.5943         64
  17.6128         59
  17.6314         53
  17.6500         59
  17.6686         65
  17.6871         81
  17.7057         57
  17.7243         65
  17.7429         49
  17.7614         57
  17.7800         60
  17.7986         58
  17.8172         54
  17.8357         56
  17.8543         68
  17.8729         53
  17.8915         70
  17.9100         53
  17.9286         65
  17.9472         54
  17.9658         57
  17.9843         62
  18.0029         63
  18.0215         68
  18.0401         48
  18.0586         68
  18.0772         65
  18.0958         72
  18.1144         85
  18.1329         53
  18.1515         62
  18.1701         71
  18.1887         64
  18.2073         51
  18.2258         47
  18.2444         53
  18.2630         63
  18.2816         61
  18.3001         52
  18.3187         52
  18.3373         53
  18.3559         70
  18.3744         49
  18.3930         57
  18.4116         47
  18.4302         71
  18.4487         54
  18.4673         78
  18.4859         56
  18.5045         52
  18.5230         66
  18.5416         53
  18.5602         72
  18.5788         61
  18.5973         56
  18.6159         58
  18.6345         67
  18.6531         58
  18.6716         51
  18.6902         58
  18.7088         63
  18.7274         64
  18.7459         46
  18.7645         62
  18.7831         55
  18.8017         54
  18.8202         65
  18.8388         69
  18.8574         56
  18.8760         60
  18.8945         61
  18.9131         64
  18.9317         47
  18.9503         50
  18.9689         66
  18.9874         57
  19.0060         60
  19.0246         57
  19.0432         56
  19.0617         62
  19.0803         65
  19.0989         69
  19.1175         65
  19.1360         76
  19.1546         58
  19.1732         58
  19.1918         66
  19.2103         77
  19.2289         58
  19.2475         71
  19.2661         68
  19.2846         64
  19.3032         56
  19.3218         52
  19.3404         73
  19.3589         51
  19.3775         57
  19.3961         62
  19.4147         71
  19.4332         66
  19.4518         59
  19.4704         54
  19.4890         55
  19.5075         57
  19.5261         64
  19.5447         70
  19.5633         58
  19.5818         51
  19.6004         58
  19.6190         56
  19.6376         59
  19.6561         60
  19.6747         68
  19.6933         73
  19.7119         78
  19.7305         66
  19.7490         70
  19.7676         70
  19.7862         75
  19.8048         55
  19.8233         65
  19.8419         54
  19.8605         61
  19.8791         61
  19.8976         76
  19.9162         67
  19.9348         56
  19.9534         65
  19.9719         60
  19.9905         51
  20.0091         56
  20.0277         67
  20.0462         64
  20.0648         50
  20.0834         66
  20.1020         62
  20.1205         67
  20.1391         57
  20.1577         60
  20.1763         67
  20.1948         60
  20.2134         63
  20.2320         58
  20.2506         57
  20.2691         80
  20.2877         81
  20.3063         56
  20.3249         67
  20.3434         66
  20.3620         69
  20.3806         60
  20.3992         64
  20.4177         68
  20.4363         79
  20.4549         68
  20.4735         76
  20.4921         61
  20.5106         67
  20.5292         71
  20.5478         55
  20.5664         61
  20.5849         61
  20.6035         67
  20.6221         76
  20.6407         82
  20.6592         59
  20.6778         74
  20.6964         71
  20.7150         68
  20.7335         73
  20.7521         85
  20.7707         68
  20.7893         65
  20.8078         66
  20.8264         75
  20.8450         79
  20.8636         63
  20.8821         62
  20.9007         56
  20.9193         69
  20.9379         53
  20.9564         57
  20.9750         77
  20.9936         61
  21.0122         79
  21.0307         89
  21.0493         72
  21.0679         83
  21.0865         71
  21.1050         81
  21.1236         88
  21.1422         83
  21.1608         81
  21.1793         88
  21.1979         98
  21.2165        142
  21.2351        110
  21.2537        115
  21.2722        108
  21.2908        108
  21.3094        124
  21.3280        134
  21.3465        196
  21.3651        205
  21.3837        150
  21.4023        146
  21.4208        147
  21.4394         95
  21.4580         71
  21.4766         82
  21.4951         70
  21.5137         81
  21.5323         74
  21.5509         71
  21.5694         76
  21.5880         85
  21.6066         72
  21.6252         80
  21.6437         65
  21.6623         76
  21.6809         90
  21.6995         80
  21.7180         75
  21.7366         77
  21.7552         73
  21.7738         75
  21.7923         54
  21.8109         72
  21.8295         62
  21.8481         74
  21.8666         67
  21.8852         70
  21.9038         52
  21.9224         62
  21.9409         78
  21.9595         74
  21.9781         68
  21.9967         77
  22.0152         58
  22.0338         67
  22.0524         75
  22.0710         67
  22.0896         68
  22.1081         86
  22.1267         74
  22.1453         68
  22.1639         82
  22.1824         80
  22.2010         63
  22.2196         63
  22.2382         66
  22.2567         78
  22.2753         87
  22.2939         70
  22.3125         76
  22.3310         60
  22.3496         47
  22.3682         73
  22.3868         81
  22.4053         73
  22.4239         72
  22.4425         63
  22.4611         70
  22.4796         63
  22.4982         76
  22.5168         75
  22.5354         59
  22.5539         60
  22.5725         85
  22.5911         66
  22.6097         69
  22.6282         90
  22.6468         68
  22.6654         88
  22.6840         72
  22.7025         63
  22.7211         85
  22.7397         66
  22.7583         58
  22.7768         75
  22.7954         91
  22.8140         59
  22.8326         83
  22.8512         61
  22.8697         61
  22.8883         73
  22.9069         70
  22.9255         69
  22.9440         65
  22.9626         66
  22.9812         86
  22.9998         81
  23.0183         76
  23.0369         73
  23.0555         74
  23.0741         75
  23.0926         65
  23.1112         68
  23.1298         78
  23.1484         95
  23.1669         82
  23.1855         80
  23.2041         68
  23.2227         93
  23.2412         78
  23.2598         79
  23.2784         81
  23.2970         82
  23.3155         77
  23.3341         62
  23.3527         57
  23.3713         59
  23.3898         93
  23.4084         78
  23.4270         72
  23.4456         82
  23.4641         82
  23.4827         87
  23.5013         72
  23.5199         96
  23.5384         82
  23.5570         89
  23.5756         89
  23.5942         68
  23.6128         74
  23.6313         75
  23.6499         81
  23.6685         76
  23.6871         64
  23.7056         72
  23.7242         80
  23.7428         79
  23.7614         75
  23.7799         66
  23.7985         59
  23.8171         75
  23.8357         70
  23.8542         88
  23.8728         72
  23.8914         91
  23.9100         74
  23.9285         69
  23.9471         65
  23.9657         76
  23.9843         96
  24.0028         87
  24.0214         70
  24.0400         86
  24.0586         69
  24.0771         81
  24.0957         64
  24.1143         82
  24.1329         73
  24.1514         65
  24.1700         75
  24.1886         76
  24.2072         62
  24.2257         84
  24.2443         73
  24.2629         77
  24.2815         85
  24.3000         80
  24.3186         80
  24.3372         79
  24.3558         69
  24.3744         67
  24.3929         76
  24.4115        100
  24.4301         68
  24.4487         83
  24.4672         67
  24.4858         71
  24.5044         82
  24.5230         70
  24.5415         95
  24.5601         82
  24.5787         73
  24.5973         78
  24.6158         89
  24.6344         65
  24.6530         70
  24.6716         76
  24.6901         67
  24.7087         84
  24.7273         68
  24.7459         66
  24.7644         69
  24.7830         68
  24.8016         77
  24.8202         78
  24.8387         68
  24.8573         66
  24.8759         56
  24.8945         67
  24.9130         60
  24.9316         69
  24.9502         74
  24.9688         62
  24.9873         66
  25.0059         75
  25.0245         75
  25.0431         76
  25.0616         77
  25.0802         72
  25.0988         78
  25.1174         67
  25.1360         67
  25.1545         80
  25.1731         69
  25.1917         70
  25.2103         69
  25.2288         87
  25.2474         76
  25.2660         70
  25.2846         54
  25.3031         75
  25.3217         74
  25.3403         65
  25.3589         74
  25.3774         64
  25.3960         77
  25.4146         66
  25.4332         78
  25.4517         54
  25.4703         81
  25.4889         88
  25.5075         61
  25.5260         73
  25.5446         70
  25.5632         65
  25.5818         69
  25.6003         69
  25.6189         79
  25.6375         79
  25.6561         71
  25.6746         76
  25.6932         58
  25.7118         57
  25.7304         77
  25.7489         76
  25.7675         72
  25.7861         77
  25.8047         80
  25.8232         63
  25.8418         69
  25.8604         71
  25.8790         67
  25.8976         55
  25.9161         65
  25.9347         80
  25.9533         77
  25.9719         74
  25.9904         86
  26.0090         63
  26.0276         66
  26.0462         85
  26.0647         79
  26.0833         59
  26.1019         73
  26.1205         76
  26.1390         51
  26.1576         61
  26.1762         78
  26.1948         89
  26.2133         76
  26.2319         70
  26.2505         74
  26.2691         77
  26.2876         66
  26.3062         62
  26.3248         70
  26.3434         64
  26.3619         81
  26.3805         73
  26.3991         73
  26.4177         77
  26.4362         65
  26.4548         87
  26.4734         72
  26.4920         69
  26.5105         77
  26.5291         75
  26.5477         71
  26.5663         64
  26.5848         64
  26.6034         74
  26.6220         68
  26.6406         67
  26.6591         71
  26.6777         85
  26.6963         65
  26.7149         57
  26.7335         84
  26.7520         61
  26.7706         61
  26.7892         64
  26.8078         54
  26.8263         64
  26.8449         61
  26.8635         65
  26.8821         67
  26.9006         86
  26.9192         67
  26.9378         75
  26.9564         74
  26.9749         81
  26.9935         76
  27.0121         83
  27.0307         63
  27.0492         78
  27.0678         88
  27.0864         67
  27.1050         56
  27.1235         87
  27.1421         76
  27.1607         89
  27.1793         81
  27.1978         90
  27.2164         98
  27.2350        102
  27.2536         89
  27.2721         97
  27.2907         72
  27.3093         72
  27.3279         63
  27.3464         67
  27.3650         72
  27.3836         79
  27.4022         69
  27.4207         82
  27.4393         54
  27.4579         75
  27.4765         73
  27.4951         75
  27.5136         68
  27.5322         56
  27.5508         64
  27.5694         63
  27.5879         58
  27.6065         71
  27.6251         66
  27.6437         69
  27.6622         64
  27.6808         52
  27.6994         67
  27.7180         54
  27.7365         83
  27.7551         69
  27.7737         68
  27.7923         57
  27.8108         56
  27.8294         63
  27.8480         77
  27.8666         49
  27.8851         65
  27.9037         57
  27.9223         57
  27.9409         74
  27.9594         58
  27.9780         59
  27.9966         58
  28.0152         60
  28.0337         75
  28.0523         57
  28.0709         65
  28.0895         65
  28.1080         56
  28.1266         76
  28.1452         71
  28.1638         63
  28.1823         53
  28.2009         69
  28.2195         51
  28.2381         62
  28.2567         56
  28.2752         63
  28.2938         52
  28.3124         60
  28.3310         51
  28.3495         66
  28.3681         73
  28.3867         61
  28.4053         60
  28.4238         69
  28.4424         55
  28.4610         61
  28.4796         72
  28.4981         63
  28.5167         48
  28.5353         63
  28.5539         62
  28.5724         66
  28.5910         64
  28.6096         68
  28.6282         49
  28.6467         56
  28.6653         65
  28.6839         73
  28.7025         79
  28.7210         58
  28.7396         71
  28.7582         45
  28.7768         49
  28.7953         58
  28.8139         58
  28.8325         67
  28.8511         79
  28.8696         53
  28.8882         70
  28.9068         69
  28.9254         37
  28.9439         84
  28.9625         61
  28.9811         60
  28.9997         57
  29.0183         55
  29.0368         67
  29.0554         67
  29.0740         72
  29.0926         73
  29.1111         65
  29.1297         73
  29.1483         51
  29.1669         55
  29.1854         60
  29.2040         65
  29.2226         58
  29.2412         52
  29.2597         66
  29.2783         50
  29.2969         60
  29.3155         68
  29.3340         44
  29.3526         54
  29.3712         58
  29.3898         56
  29.4083         74
  29.4269         65
  29.4455         67
  29.4641         56
  29.4826         54
  29.5012         62
  29.5198         55
  29.5384         71
  29.5569         45
  29.5755         48
  29.5941         60
  29.6127         65
  29.6312         65
  29.6498         63
  29.6684         56
  29.6870         59
  29.7055         53
  29.7241         53
  29.7427         70
  29.7613         59
  29.7799         56
  29.7984         56
  29.8170         60
  29.8356         60
  29.8542         53
  29.8727         57
  29.8913         45
  29.9099         57
  29.9285         49
  29.9470         56
  29.9656         61
  29.9842         65
  30.0028         63
  30.0213         53
  30.0399         49
  30.0585         55
  30.0771         63
  30.0956         60
  30.1142         72
  30.1328         64
  30.1514         55
  30.1699         62
  30.1885         55
  30.2071         73
  30.2257         48
  30.2442         67
  30.2628         64
  30.2814         77
  30.3000         62
  30.3185         56
  30.3371         85
  30.3557         79
  30.3743        130
  30.3928        131
  30.4114        123
  30.4300         80
  30.4486         89
  30.4671         79
  30.4857         88
  30.5043         59
  30.5229         70
  30.5415         50
  30.5600         43
  30.5786         55
  30.5972         54
  30.6158         48
  30.6343         61
  30.6529         48
  30.6715         57
  30.6901         63
  30.7086         61
  30.7272         59
  30.7458         61
  30.7644         52
  30.7829         52
  30.8015         52
  30.8201         50
  30.8387         49
  30.8572         59
  30.8758         54
  30.8944         53
  30.9130         64
  30.9315         52
  30.9501         51
  30.9687         52
  30.9873         51
  31.0058         56
  31.0244         44
  31.0430         51
  31.0616         55
  31.0801         69
  31.0987         55
  31.1173         49
  31.1359         55
  31.1544         53
  31.1730         51
  31.1916         51
  31.2102         49
  31.2287         39
  31.2473         55
  31.2659         74
  31.2845         58
  31.3030         46
  31.3216         59
  31.3402         51
  31.3588         52
  31.3774         50
  31.3959         54
  31.4145         54
  31.4331         50
  31.4517         52
  31.4702         56
  31.4888         60
  31.5074         55
  31.5260         44
  31.5445         43
  31.5631         57
  31.5817         45
  31.6003         51
  31.6188         45
  31.6374         61
  31.6560         55
  31.6746         40
  31.6931         51
  31.7117         42
  31.7303         51
  31.7489         42
  31.7674         56
  31.7860         49
  31.8046         60
  31.8232         59
  31.8417         52
  31.8603         40
  31.8789         47
  31.8975         47
  31.9160         51
  31.9346         46
  31.9532         48
  31.9718         53
  31.9903         48
  32.0089         41
  32.0275         32
  32.0461         46
  32.0646         41
  32.0832         49
  32.1018         54
  32.1204         43
  32.1390         45
  32.1575         54
  32.1761         48
  32.1947         55
  32.2133         56
  32.2318         52
  32.2504         52
  32.2690         44
  32.2876         41
  32.3061         46
  32.3247         54
  32.3433         57
  32.3619         67
  32.3804         47
  32.3990         46
  32.4176         49
  32.4362         56
  32.4547         61
  32.4733         48
  32.4919         47
  32.5105         45
  32.5290         53
  32.5476         57
  32.5662         55
  32.5848         59
  32.6033         66
  32.6219         52
  32.6405         40
  32.6591         52
  32.6776         57
  32.6962         41
  32.7148         37
  32.7334         53
  32.7519         49
  32.7705         45
  32.7891         45
  32.8077         43
  32.8262         42
  32.8448         54
  32.8634         41
  32.8820         44
  32.9006         47
  32.9191         47
  32.9377         50
  32.9563         57
  32.9749         50
  32.9934         54
  33.0120         55
  33.0306         46
  33.0492         50
  33.0677         63
  33.0863         54
  33.1049         44
  33.1235         49
  33.1420         40
  33.1606         42
  33.1792         40
  33.1978         47
  33.2163         54
  33.2349         50
  33.2535         40
  33.2721         38
  33.2906         44
  33.3092         55
  33.3278         41
  33.3464         38
  33.3649         45
  33.3835         54
  33.4021         36
  33.4207         34
  33.4392         47
  33.4578         31
  33.4764         33
  33.4950         41
  33.5135         46
  33.5321         36
  33.5507         45
  33.5693         39
  33.5878         42
  33.6064         37
  33.6250         46
  33.6436         52
  33.6622         53
  33.6807         45
  33.6993         39
  33.7179         46
  33.7365         50
  33.7550         51
  33.7736         35
  33.7922         55
  33.8108         43
  33.8293         46
  33.8479         49
  33.8665         41
  33.8851         42
  33.9036         41
  33.9222         35
  33.9408         51
  33.9594         44
  33.9779         31
  33.9965         35
  34.0151         44
  34.0337         35
  34.0522         48
  34.0708         32
  34.0894         34
  34.1080         41
  34.1265         40
  34.1451         40
  34.1637         33
  34.1823         32
  34.2008         36
  34.2194         50
  34.2380         36
  34.2566         44
  34.2751         37
  34.2937         40
  34.3123         38
  34.3309         45
  34.3494         47
  34.3680         40
  34.3866         39
  34.4052         46
  34.4238         41
  34.4423         35
  34.4609         54
  34.4795         59
  34.4981         36
  34.5166         28
  34.5352         46
  34.5538         53
  34.5724         51
  34.5909         56
  34.6095         47
  34.6281         41
  34.6467         42
  34.6652         47
  34.6838         50
  34.7024         49
  34.7210         53
  34.7395         40
  34.7581         62
  34.7767         49
  34.7953         59
  34.8138         61
  34.8324         45
  34.8510         55
  34.8696         49
  34.8881         46
  34.9067         39
  34.9253         44
  34.9439         43
  34.9624         43
  34.9810         39
  34.9996         41
  35.0182         36
  35.0367         37
  35.0553         43
  35.0739         38
  35.0925         42
  35.1110         37
  35.1296         43
  35.1482         41
  35.1668         39
  35.1854         48
  35.2039         42
  35.2225         39
  35.2411         36
  35.2597         44
  35.2782         38
  35.2968         35
  35.3154         46
  35.3340         52
  35.3525         26
  35.3711         34
  35.3897         30
  35.4083         26
  35.4268         39
  35.4454         45
  35.4640         42
  35.4826         45
  35.5011         50
  35.5197         34
  35.5383         39
  35.5569         31
  35.5754         48
  35.5940         45
  35.6126         42
  35.6312         31
  35.6497         42
  35.6683         25
  35.6869         33
  35.7055         30
  35.7240         38
  35.7426         32
  35.7612         36
  35.7798         32
  35.7983         51
  35.8169         43
  35.8355         44
  35.8541         23
  35.8726         31
  35.8912         34
  35.9098         28
  35.9284         28
  35.9469         34
  35.9655         35
  35.9841         37
  36.0027         37
  36.0213         42
  36.0398         36
  36.0584         32
  36.0770         24
  36.0956         27
  36.1141         48
  36.1327         32
  36.1513         40
  36.1699         36
  36.1884         43
  36.2070         37
  36.2256         51
  36.2442         28
  36.2627         25
  36.2813         35
  36.2999         33
  36.3185         33
  36.3370         40
  36.3556         30
  36.3742         40
  36.3928         45
  36.4113         43
  36.4299         38
  36.4485         29
  36.4671         33
  36.4856         35
  36.5042         23
  36.5228         32
  36.5414         43
  36.5599         28
  36.5785         35
  36.5971         43
  36.6157         41
  36.6342         35
  36.6528         32
  36.6714         41
  36.6900         38
  36.7085         38
  36.7271         41
  36.7457         36
  36.7643         31
  36.7829         29
  36.8014         41
  36.8200         39
  36.8386         49
  36.8572         38
  36.8757         35
  36.8943         29
  36.9129         30
  36.9315         27
  36.9500         28
  36.9686         29
  36.9872         32
  37.0058         42
  37.0243         27
  37.0429         33
  37.0615         28
  37.0801         42
  37.0986         46
  37.1172         31
  37.1358         40
  37.1544         29
  37.1729         25
  37.1915         30
  37.2101         46
  37.2287         30
  37.2472         30
  37.2658         39
  37.2844         33
  37.3030         31
  37.3215         31
  37.3401         35
  37.3587         38
  37.3773         40
  37.3958         38
  37.4144         47
  37.4330         57
  37.4516         53
  37.4701         49
  37.4887         55
  37.5073         42
  37.5259         53
  37.5445         50
  37.5630         52
  37.5816         35
  37.6002         32
  37.6188         32
  37.6373         25
  37.6559         38
  37.6745         36
  37.6931         34
  37.7116         36
  37.7302         13
  37.7488         32
  37.7674         30
  37.7859         34
  37.8045         32
  37.8231         30
  37.8417         36
  37.8602         28
  37.8788         33
  37.8974         28
  37.9160         28
  37.9345         33
  37.9531         31
  37.9717         31
  37.9903         37
  38.0088         26
  38.0274         36
  38.0460         30
  38.0646         39
  38.0831         42
  38.1017         29
  38.1203         32
  38.1389         35
  38.1574         31
  38.1760         35
  38.1946         34
  38.2132         26
  38.2317         27
  38.2503         30
  38.2689         29
  38.2875         37
  38.3061         22
  38.3246         33
  38.3432         25
  38.3618         33
  38.3804         34
  38.3989         33
  38.4175         34
  38.4361         32
  38.4547         35
  38.4732         33
  38.4918         35
  38.5104         35
  38.5290         31
  38.5475         38
  38.5661         28
  38.5847         30
  38.6033         24
  38.6218         45
  38.6404         36
  38.6590         31
  38.6776         35
  38.6961         28
  38.7147         26
  38.7333         29
  38.7519         35
  38.7704         32
  38.7890         35
  38.8076         31
  38.8262         38
  38.8447         42
  38.8633         31
  38.8819         30
  38.9005         26
  38.9190         24
  38.9376         40
  38.9562         38
  38.9748         32
  38.9933         29
  39.0119         26
  39.0305         30
  39.0491         34
  39.0677         28
  39.0862         29
  39.1048         26
  39.1234         37
  39.1420         31
  39.1605         26
  39.1791         35
  39.1977         32
  39.2163         33
  39.2348         27
  39.2534         27
  39.2720         26
  39.2906         26
  39.3091         40
  39.3277         29
  39.3463         35
  39.3649         32
  39.3834         24
  39.4020         25
  39.4206         33
  39.4392         29
  39.4577         31
  39.4763         36
  39.4949         24
  39.5135         34
  39.5320         24
  39.5506         29
  39.5692         25
  39.5878         37
  39.6063         32
  39.6249         46
  39.6435         29
  39.6621         28
  39.6806         36
  39.6992         27
  39.7178         28
  39.7364         22
  39.7549         32
  39.7735         24
  39.7921         22
  39.8107         23
  39.8293         26
  39.8478         27
  39.8664         31
  39.8850         21
  39.9036         24
  39.9221         32
  39.9407         28
  39.9593         29
  39.9779         24
  39.9964         22
  40.0150         24
  40.0336         35
  40.0522         29
  40.0707         38
  40.0893         21
  40.1079         35
  40.1265         27
  40.1450         21
  40.1636         32
  40.1822         34
  40.2008         31
  40.2193         23
  40.2379         21
  40.2565         35
  40.2751         19
  40.2936         35
  40.3122         32
  40.3308         28
  40.3494         29
  40.3679         32
  40.3865         29
  40.4051         23
  40.4237         34
  40.4422         28
  40.4608         26
  40.4794         34
  40.4980         27
  40.5165         31
  40.5351         29
  40.5537         33
  40.5723         28
  40.5908         26
  40.6094         29
  40.6280         27
  40.6466         26
  40.6652         24
  40.6837         38
  40.7023         28
  40.7209         31
  40.7395         34
  40.7580         26
  40.7766         30
  40.7952         35
  40.8138         36
  40.8323         28
  40.8509         36
  40.8695         23
  40.8881         24
  40.9066         18
  40.9252         24
  40.9438         28
  40.9624         32
  40.9809         21
  40.9995         32
  41.0181         25
  41.0367         39
  41.0552         31
  41.0738         27
  41.0924         33
  41.1110         29
  41.1295         34
  41.1481         34
  41.1667         20
  41.1853         27
  41.2038         28
  41.2224         32
  41.2410         29
  41.2596         24
  41.2781         20
  41.2967         32
  41.3153         29
  41.3339         29
  41.3524         23
  41.3710         32
  41.3896         20
  41.4082         26
  41.4268         31
  41.4453         19
  41.4639         25
  41.4825         22
  41.5011         29
  41.5196         32
  41.5382         27
  41.5568         22
  41.5754         19
  41.5939         26
  41.6125         24
  41.6311         26
  41.6497         22
  41.6682         20
  41.6868         20
  41.7054         18
  41.7240         25
  41.7425         29
  41.7611         26
  41.7797         25
  41.7983         35
  41.8168         36
  41.8354         29
  41.8540         20
  41.8726         31
  41.8911         28
  41.9097         24
  41.9283         26
  41.9469         17
  41.9654         22
  41.9840         35
  42.0026         29
  42.0212         39
  42.0397         31
  42.0583         23
  42.0769         32
  42.0955         21
  42.1140         28
  42.1326         31
  42.1512         20
  42.1698         36
  42.1884         40
  42.2069         33
  42.2255         26
  42.2441         25
  42.2627         31
  42.2812         34
  42.2998         33
  42.3184         21
  42.3370         30
  42.3555         28
  42.3741         22
  42.3927         32
  42.4113         17
  42.4298         26
  42.4484         28
  42.4670         26
  42.4856         23
  42.5041         29
  42.5227         29
  42.5413         23
  42.5599         23
  42.5784         25
  42.5970         29
  42.6156         27
  42.6342         15
  42.6527         23
  42.6713         25
  42.6899         27
  42.7085         30
  42.7270         21
  42.7456         34
  42.7642         28
  42.7828         25
  42.8013         26
  42.8199         16
  42.8385         45
  42.8571         28
  42.8756         31
  42.8942         35
  42.9128         29
  42.9314         37
  42.9500         22
  42.9685         32
  42.9871         23
  43.0057         31
  43.0243         24
  43.0428         25
  43.0614         39
  43.0800         31
  43.0986         33
  43.1171         37
  43.1357         21
  43.1543         23
  43.1729         32
  43.1914         31
  43.2100         29
  43.2286         26
  43.2472         42
  43.2657         35
  43.2843         38
  43.3029         35
  43.3215         26
  43.3400         30
  43.3586         32
  43.3772         27
  43.3958         34
  43.4143         23
  43.4329         41
  43.4515         26
  43.4701         39
  43.4886         48
  43.5072         47
  43.5258         39
  43.5444         40
  43.5629         29
  43.5815         45
  43.6001         33
  43.6187         40
  43.6372         41
  43.6558         33
  43.6744         35
  43.6930         23
  43.7116         28
  43.7301         29
  43.7487         28
  43.7673         34
  43.7859         36
  43.8044         26
  43.8230         33
  43.8416         24
  43.8602         29
  43.8787         20
  43.8973         32
  43.9159         32
  43.9345         27
  43.9530         26
  43.9716         29
  43.9902         23
  44.0088         23
  44.0273         35
  44.0459         21
  44.0645         24
  44.0831         36
  44.1016         27
  44.1202         27
  44.1388         27
  44.1574         33
  44.1759         30
  44.1945         28
  44.2131         31
  44.2317         34
  44.2502         25
  44.2688         31
  44.2874         29
  44.3060         26
  44.3245         35
  44.3431         24
  44.3617         20
  44.3803         34
  44.3988         23
  44.4174         30
  44.4360         32
  44.4546         20
  44.4732         33
  44.4917         32
  44.5103         33
  44.5289         19
  44.5475         26
  44.5660         20
  44.5846         27
  44.6032         19
  44.6218         38
  44.6403         29
  44.6589         25
  44.6775         27
  44.6961         34
  44.7146         30
  44.7332         23
  44.7518         34
  44.7704         28
  44.7889         46
  44.8075         26
  44.8261         21
  44.8447         20
  44.8632         27
  44.8818         23
  44.9004         21
  44.9190         24
  44.9375         27
  44.9561         23
  44.9747         32
  44.9933         27
  45.0118         23
  45.0304         32
  45.0490         24
  45.0676         32
  45.0861         26
  45.1047         25
  45.1233         24
  45.1419         28
  45.1604         23
  45.1790         18
  45.1976         23
  45.2162         25
  45.2347         23
  45.2533         15
  45.2719         32
  45.2905         32
  45.3091         26
  45.3276         27
  45.3462         30
  45.3648         28
  45.3834         25
  45.4019         24
  45.4205         27
  45.4391         20
  45.4577         28
  45.4762         26
  45.4948         21
  45.5134         22
  45.5320         32
  45.5505         23
  45.5691         27
  45.5877         31
  45.6063         27
  45.6248         18
  45.6434         21
  45.6620         39
  45.6806         25
  45.6991         20
  45.7177         36
  45.7363         25
  45.7549         19
  45.7734         21
  45.7920         20
  45.8106         21
  45.8292         28
  45.8477         18
  45.8663         25
  45.8849         18
  45.9035         22
  45.9220         19
  45.9406         20
  45.9592         21
  45.9778         32
  45.9963         30
  46.0149         37
  46.0335         24
  46.0521         20
  46.0707         32
  46.0892         16
  46.1078         17
  46.1264         22
  46.1450         29
  46.1635         25
  46.1821         24
  46.2007         23
  46.2193         36
  46.2378         22
  46.2564         18
  46.2750         24
  46.2936         28
  46.3121         21
  46.3307         22
  46.3493         16
  46.3679         19
  46.3864         26
  46.4050         26
  46.4236         29
  46.4422         26
  46.4607         24
  46.4793         22
  46.4979         23
  46.5165         22
  46.5350         25
  46.5536         30
  46.5722         29
  46.5908         21
  46.6093         34
  46.6279         33
  46.6465         25
  46.6651         16
  46.6836         25
  46.7022         25
  46.7208         18
  46.7394         39
  46.7579         18
  46.7765         19
  46.7951         17
  46.8137         28
  46.8323         23
  46.8508         22
  46.8694         33
  46.8880         26
  46.9066         22
  46.9251         26
  46.9437         23
  46.9623         19
  46.9809         21
  46.9994         20
  47.0180         30
  47.0366         28
  47.0552         24
  47.0737         21
  47.0923         24
  47.1109         16
  47.1295         21
  47.1480         32
  47.1666         18
  47.1852         35
  47.2038         26
  47.2223         26
  47.2409         25
  47.2595         25
  47.2781         24
  47.2966         19
  47.3152         23
  47.3338         25
  47.3524         36
  47.3709         25
  47.3895         34
  47.4081         16
  47.4267         23
  47.4452         27
  47.4638         15
  47.4824         28
  47.5010         23
  47.5195         22
  47.5381         21
  47.5567         17
  47.5753         34
  47.5939         20
  47.6124         22
  47.6310         21
  47.6496         31
  47.6682         32
  47.6867         16
  47.7053         23
  47.7239         19
  47.7425         17
  47.7610         22
  47.7796         31
  47.7982         23
  47.8168         23
  47.8353         20
  47.8539         30
  47.8725         16
  47.8911         21
  47.9096         38
  47.9282         20
  47.9468         23
  47.9654         21
  47.9839         31
  48.0025         20
  48.0211         21
  48.0397         35
  48.0582         28
  48.0768         24
  48.0954         25
  48.1140         17
  48.1325         24
  48.1511         31
  48.1697         23
  48.1883         20
  48.2068         24
  48.2254         11
  48.2440         26
  48.2626         30
  48.2811         15
  48.2997         19
  48.3183         20
  48.3369         23
  48.3555         18
  48.3740         24
  48.3926         29
  48.4112         24
  48.4298         32
  48.4483         25
  48.4669         28
  48.4855         26
  48.5041         20
  48.5226         24
  48.5412         26
  48.5598         18
  48.5784         21
  48.5969         21
  48.6155         26
  48.6341         11
  48.6527         25
  48.6712         24
  48.6898         32
  48.7084         24
  48.7270         19
  48.7455         20
  48.7641         27
  48.7827         24
  48.8013         24
  48.8198         18
  48.8384         30
  48.8570         20
  48.8756         28
  48.8941         22
  48.9127         33
  48.9313         21
  48.9499         40
  48.9684         47
  48.9870         34
  49.0056         26
  49.0242         28
  49.0427         31
  49.0613         39
  49.0799         36
  49.0985         26
  49.1171         36
  49.1356         30
  49.1542         30
  49.1728         26
  49.1914         21
  49.2099         22
  49.2285         19
  49.2471         21
  49.2657         20
  49.2842         24
  49.3028         21
  49.3214         26
  49.3400         22
  49.3585         34
  49.3771         25
  49.3957         21
  49.4143         27
  49.4328         20
  49.4514         19
  49.4700         27
  49.4886         23
  49.5071         15
  49.5257         16
  49.5443         19
  49.5629         24
  49.5814         21
  49.6000         20
  49.6186         23
  49.6372         19
  49.6557         18
  49.6743         22
  49.6929         23
  49.7115         26
  49.7300         27
  49.7486         15
  49.7672         26
  49.7858         20
  49.8043         28
  49.8229         16
  49.8415         28
  49.8601         18
  49.8786         20
  49.8972         22
  49.9158         30
  49.9344         26
  49.9530         19
  49.9715         25
  49.9901         23
  50.0087         27
  50.0273         24
  50.0458         31
  50.0644         12
  50.0830         26
  50.1016         30
  50.1201         17
  50.1387         26
  50.1573         20
  50.1759         28
  50.1944         23
  50.2130         26
  50.2316         19
  50.2502         17
  50.2687         18
  50.2873         17
  50.3059         24
  50.3245         17
  50.3430         17
  50.3616         28
  50.3802         26
  50.3988         21
  50.4173         28
  50.4359         26
  50.4545         20
  50.4731         19
  50.4916         19
  50.5102         20
  50.5288         21
  50.5474         17
  50.5659         27
  50.5845         28
  50.6031         24
  50.6217         17
  50.6402         28
  50.6588         23
  50.6774         29
  50.6960         25
  50.7146         21
  50.7331         26
  50.7517         23
  50.7703         20
  50.7889         20
  50.8074         20
  50.8260         16
  50.8446         23
  50.8632         20
  50.8817         26
  50.9003         13
  50.9189         18
  50.9375         19
  50.9560         22
  50.9746         18
  50.9932         21
  51.0118         19
  51.0303         28
  51.0489         20
  51.0675         23
  51.0861         28
  51.1046         17
  51.1232         14
  51.1418         19
  51.1604         26
  51.1789         22
  51.1975         25
  51.2161         29
  51.2347         25
  51.2532         18
  51.2718         24
  51.2904         19
  51.3090         22
  51.3275         22
  51.3461         22
  51.3647         26
  51.3833         24
  51.4018         24
  51.4204         36
  51.4390         35
  51.4576         24
  51.4762         27
  51.4947         23
  51.5133         24
  51.5319         28
  51.5505         25
  51.5690         26
  51.5876         28
  51.6062         23
  51.6248         29
  51.6433         27
  51.6619         22
  51.6805         16
  51.6991         33
  51.7176         23
  51.7362         24
  51.7548         22
  51.7734         24
  51.7919         26
  51.8105         19
  51.8291         26
  51.8477         30
  51.8662         30
  51.8848         24
  51.9034         20
  51.9220         20
  51.9405          9
  51.9591         31
  51.9777         33
  51.9963         20
  52.0148         17
  52.0334         23
  52.0520         23
  52.0706         15
  52.0891         23
  52.1077         16
  52.1263         19
  52.1449         16
  52.1634         16
  52.1820         15
  52.2006         22
  52.2192         21
  52.2378         16
  52.2563         14
  52.2749         24
  52.2935         18
  52.3121         20
  52.3306         25
  52.3492         26
  52.3678         23
  52.3864         20
  52.4049         18
  52.4235         25
  52.4421         23
  52.4607         22
  52.4792         22
  52.4978         25
  52.5164         18
  52.5350         23
  52.5535         12
  52.5721         25
  52.5907         22
  52.6093         19
  52.6278         19
  52.6464         18
  52.6650         24
  52.6836         26
  52.7021         26
  52.7207         20
  52.7393         30
  52.7579         22
  52.7764         30
  52.7950         26
  52.8136         20
  52.8322         31
  52.8507         25
  52.8693         18
  52.8879         17
  52.9065         21
  52.9250         29
  52.9436         26
  52.9622         29
  52.9808         17
  52.9994         26
  53.0179         22
  53.0365         21
  53.0551         19
  53.0737         23
  53.0922         20
  53.1108         31
  53.1294         27
  53.1480         22
  53.1665         23
  53.1851         19
  53.2037         22
  53.2223         33
  53.2408         17
  53.2594         24
  53.2780         31
  53.2966         29
  53.3151         24
  53.3337         23
  53.3523         14
  53.3709         26
  53.3894         21
  53.4080         21
  53.4266         26
  53.4452         17
  53.4637         25
  53.4823         18
  53.5009         25
  53.5195         22
  53.5380         26
  53.5566         16
  53.5752         24
  53.5938         12
  53.6123         21
  53.6309         19
  53.6495         21
  53.6681         16
  53.6866         19
  53.7052         23
  53.7238         23
  53.7424         22
  53.7610         23
  53.7795         16
  53.7981         15
  53.8167         21
  53.8353         20
  53.8538         20
  53.8724         23
  53.8910         17
  53.9096         27
  53.9281         21
  53.9467         28
  53.9653         21
  53.9839         32
  54.0024         29
  54.0210         38
  54.0396         28
  54.0582         18
  54.0767         23
  54.0953         24
  54.1139         32
  54.1325         29
  54.1510         26
  54.1696         20
  54.1882         20
  54.2068         20
  54.2253         29
  54.2439         16
  54.2625         19
  54.2811         12
  54.2996         23
  54.3182         21
  54.3368         23
  54.3554         16
  54.3739         19
  54.3925         18
  54.4111         20
  54.4297         18
  54.4482         23
  54.4668         18
  54.4854         17
  54.5040         17
  54.5225         20
  54.5411         20
  54.5597         24
  54.5783         21
  54.5969         24
  54.6154         17
  54.6340         22
  54.6526         28
  54.6712         26
  54.6897         21
  54.7083         17
  54.7269         30
  54.7455         18
  54.7640         22
  54.7826         22
  54.8012         14
  54.8198         19
  54.8383         19
  54.8569         24
  54.8755         21
  54.8941         22
  54.9126         17
  54.9312         17
  54.9498         20
  54.9684         24
  54.9869         18
  55.0055         22
  55.0241         17
  55.0427         22
  55.0612         18
  55.0798         19
  55.0984         18
  55.1170         26
  55.1355         20
  55.1541         23
  55.1727         21
  55.1913         19
  55.2098         20
  55.2284         23
  55.2470         18
  55.2656         16
  55.2841         24
  55.3027         26
  55.3213         15
  55.3399         25
  55.3585         18
  55.3770         17
  55.3956         17
  55.4142         19
  55.4328         16
  55.4513         19
  55.4699         27
  55.4885         22
  55.5071         29
  55.5256         14
  55.5442         17
  55.5628         21
  55.5814         12
  55.5999         17
  55.6185         25
  55.6371         19
  55.6557         11
  55.6742         21
  55.6928         24
  55.7114         18
  55.7300         25
  55.7485         22
  55.7671         24
  55.7857         16
  55.8043         17
  55.8228         16
  55.8414         16
  55.8600         26
  55.8786         20
  55.8971         22
  55.9157         27
  55.9343         24
  55.9529         19
  55.9714         20
  55.9900         25
  56.0086         26
  56.0272         16
  56.0457         21
  56.0643         24
  56.0829         27
  56.1015         17
  56.1201         19
  56.1386         20
  56.1572         28
  56.1758         19
  56.1944         28
  56.2129         25
  56.2315         24
  56.2501         24
  56.2687         28
  56.2872         24
  56.3058         22
  56.3244         24
  56.3430         23
  56.3615         27
  56.3801         27
  56.3987         18
  56.4173         13
  56.4358         23
  56.4544         15
  56.4730         21
  56.4916         18
  56.5101         18
  56.5287         13
  56.5473         15
  56.5659         20
  56.5844         27
  56.6030         23
  56.6216         20
  56.6402         20
  56.6587         15
  56.6773         19
  56.6959         17
  56.7145         17
  56.7330         14
  56.7516         18
  56.7702         22
  56.7888         21
  56.8073         20
  56.8259         20
  56.8445         19
  56.8631         25
  56.8817         20
  56.9002         23
  56.9188         25
  56.9374         22
  56.9560         17
  56.9745         12
  56.9931         23
  57.0117         18
  57.0303         23
  57.0488         26
  57.0674         18
  57.0860         23
  57.1046         22
  57.1231         24
  57.1417         19
  57.1603         17
  57.1789         23
  57.1974         13
  57.2160         18
  57.2346         19
  57.2532         14
  57.2717         14
  57.2903         16
  57.3089         21
  57.3275         26
  57.3460         17
  57.3646         18
  57.3832         21
  57.4018         18
  57.4203         18
  57.4389         29
  57.4575         19
  57.4761         26
  57.4946         30
  57.5132         14
  57.5318         18
  57.5504         18
  57.5689         21
  57.5875         16
  57.6061         32
  57.6247         14
  57.6433         26
  57.6618         34
  57.6804         24
  57.6990         20
  57.7176         22
  57.7361         23
  57.7547         23
  57.7733         14
  57.7919         19
  57.8104         15
  57.8290         19
  57.8476         19
  57.8662         21
  57.8847         11
  57.9033         19
  57.9219         24
  57.9405         21
  57.9590         18
  57.9776         26
  57.9962         24
  58.0148         19
  58.0333         33
  58.0519         23
  58.0705         12
  58.0891         15
  58.1076         14
  58.1262         13
  58.1448         17
  58.1634         20
  58.1819         30
  58.2005         21
  58.2191         28
  58.2377         27
  58.2562         14
  58.2748         17
  58.2934         25
  58.3120         18
  58.3305         17
  58.3491         18
  58.3677         22
  58.3863         15
  58.4049         10
  58.4234         22
  58.4420         28
  58.4606         21
  58.4792         23
  58.4977         13
  58.5163         19
  58.5349         19
  58.5535         21
  58.5720         21
  58.5906         22
  58.6092         12
  58.6278         16
  58.6463         21
  58.6649         23
  58.6835         16
  58.7021         20
  58.7206         19
  58.7392         35
  58.7578         20
  58.7764         23
  58.7949         29
  58.8135         18
  58.8321         22
  58.8507         13
  58.8692         22
  58.8878         18
  58.9064         19
  58.9250         12
  58.9435         16
  58.9621         11
  58.9807         16
  58.9993         11
  59.0178         17
  59.0364         19
  59.0550         20
  59.0736         26
  59.0921         15
  59.1107         18
  59.1293         19
  59.1479         17
  59.1664         24
  59.1850         24
  59.2036         24
  59.2222         24
  59.2408         20
  59.2593         24
  59.2779         14
  59.2965         16
  59.3151         12
  59.3336         20
  59.3522         29
  59.3708         16
  59.3894         19
  59.4079         13
  59.4265         17
  59.4451         24
  59.4637         23
  59.4822         19
  59.5008         22
  59.5194         22
  59.5380         20
  59.5565         13
  59.5751         32
  59.5937         24
  59.6123         24
  59.6308         23
  59.6494         17
  59.6680         20
  59.6866         21
  59.7051         16
  59.7237         28
  59.7423         26
  59.7609         20
  59.7794         19
  59.7980         19
  59.8166         22
  59.8352         25
  59.8537         20
  59.8723         16
  59.8909         16
  59.9095         19
  59.9280         23
  59.9466         21
  59.9652         11
  59.9838         19
  60.0024         20
