; (content of file Y:\Sam\Apurva-07-20-2022\puck4\ML_20220718_2_SJD_0_LaB6-1min.raw)
_FILEVERSION = 3
_SAMPLE = ML_20220718_2_SJD_0_LaB6-1mi
_+SAMPLE = 
_SITE = USA
_USER = Administrator
_GONIOMETER_CODE = 20
; Goniometer : D8 theta/2theta, stage : Unknown
_ATTACHMENTS_CODE = 0
_GONIOMETER_RADIUS = 200.5
_FIXED_DIVSLIT = 0.6
_FIXED_SAMPLESLIT = 0
_SOLLER_SLITS = 2
_FIXED_DETSLIT = 9.55
_MONOCHROMATOR = 0
; Incident beam monochromator : None
_SOLLER_SLITS_2 = N
_THIN_FILM = N
_BETA_FILTER = Y
_FIXED_ANTISLIT = 5.89
_ANALYZER_CODE = 0
; Received beam analyzer : None
_DATEMEASURED = "21-Jul-2022 03:02:26"
_WL_UNIT = A
_WL1 = 1.5406
_WL2 = 1.54439
_WL3 = 1.39222
_WLRATIO = 0.5
_ANODE = Cu
_V4_INF_CREATOR = XRDWizard
_V4_INF_CREATOR_VERSION = V2.9.0.22
_V4_INF_WIZARD_VERSION = V2.9.0.22
_V4_INF_WIZARD_ADDINS = V2.9.0.22
_V4_INF_WIZARD_DOCTYPE = XRD
_V4_INF_OSUSER = McQueenLab
_V4_INF_USER = Administrator
_V4_INF_SITE = USA
_V4_INF_SAMPLEID = ML_20220718_2_SJD_0_LaB6-1mi

; Data for range 1
_DRIVE = COUPLED
_STEPTIME = 4.23
_STEPSIZE = 0.0185756
_STEPMODE = C
_START = 5
_THETA = 2.5
_2THETA = 5
_KHI = 0
_PHI = 0
_X = 0
_Y = 0
_Z = 0
_DETECTOR = 5
; Detector type : Unknown
_DETECTORSLIT = unkn
_AUX1 = 0
_AUX2 = 0
_AUX3 = 0
_TIMESTARTED = 15
_TEMP_RATE = -1
_TEMP_DELAY = -1
_KV = 40
_MA = 40
_RANGE_WL = 1.5406
_3DPLANE = 0
_V4_ADDITIONALDETECTOR = 257
_V4_PSD2THETA = 3.4337
_V4_PSDCHANNEL1 = 0
_V4_PSDAPERTURE = 12.68
_V4_PSDTYPE = 5
_V4_PSDFIXED = 0
_V4_COUNTERS_MASK = 4096
_V4_DRIVES_MASK = 0
_V4_ENCODERS_MASK = 0
_2THETACOUNTS = 1
; 2THETA  PSD
   5.0000        114
   5.0186         94
   5.0372         91
   5.0557        100
   5.0743         97
   5.0929         99
   5.1115         91
   5.1300         81
   5.1486         92
   5.1672         91
   5.1858         84
   5.2043         88
   5.2229         71
   5.2415         90
   5.2601         99
   5.2786         98
   5.2972         76
   5.3158         91
   5.3344         86
   5.3529         81
   5.3715         75
   5.3901         90
   5.4087         76
   5.4272         81
   5.4458         84
   5.4644         74
   5.4830         75
   5.5015         91
   5.5201         78
   5.5387         89
   5.5573         78
   5.5758         87
   5.5944         72
   5.6130         89
   5.6316         89
   5.6501         87
   5.6687         97
   5.6873         74
   5.7059         87
   5.7244         84
   5.7430         74
   5.7616         79
   5.7802         82
   5.7988         71
   5.8173         70
   5.8359         69
   5.8545         70
   5.8731         80
   5.8916         58
   5.9102         78
   5.9288         80
   5.9474         73
   5.9659         60
   5.9845         83
   6.0031         75
   6.0217         76
   6.0402         67
   6.0588         56
   6.0774         72
   6.0960         76
   6.1145         63
   6.1331         77
   6.1517         69
   6.1703         71
   6.1888         66
   6.2074         71
   6.2260         72
   6.2446         61
   6.2631         65
   6.2817         71
   6.3003         76
   6.3189         70
   6.3374         58
   6.3560         71
   6.3746         67
   6.3932         53
   6.4117         60
   6.4303         65
   6.4489         74
   6.4675         68
   6.4860         76
   6.5046         68
   6.5232         68
   6.5418         56
   6.5604         62
   6.5789         59
   6.5975         74
   6.6161         61
   6.6347         63
   6.6532         76
   6.6718         54
   6.6904         50
   6.7090         55
   6.7275         59
   6.7461         59
   6.7647         57
   6.7833         64
   6.8018         64
   6.8204         46
   6.8390         63
   6.8576         69
   6.8761         50
   6.8947         74
   6.9133         65
   6.9319         53
   6.9504         71
   6.9690         44
   6.9876         67
   7.0062         64
   7.0247         54
   7.0433         57
   7.0619         64
   7.0805         74
   7.0990         59
   7.1176         56
   7.1362         67
   7.1548         64
   7.1733         57
   7.1919         56
   7.2105         54
   7.2291         62
   7.2476         55
   7.2662         64
   7.2848         56
   7.3034         51
   7.3220         57
   7.3405         62
   7.3591         49
   7.3777         53
   7.3963         64
   7.4148         63
   7.4334         62
   7.4520         61
   7.4706         62
   7.4891         42
   7.5077         53
   7.5263         65
   7.5449         62
   7.5634         69
   7.5820         55
   7.6006         70
   7.6192         54
   7.6377         46
   7.6563         55
   7.6749         58
   7.6935         71
   7.7120         66
   7.7306         63
   7.7492         62
   7.7678         63
   7.7863         50
   7.8049         67
   7.8235         73
   7.8421         62
   7.8606         71
   7.8792         53
   7.8978         65
   7.9164         61
   7.9349         68
   7.9535         65
   7.9721         65
   7.9907         75
   8.0092         52
   8.0278         59
   8.0464         68
   8.0650         74
   8.0835         63
   8.1021         68
   8.1207         67
   8.1393         60
   8.1579         64
   8.1764         75
   8.1950         69
   8.2136         70
   8.2322         62
   8.2507         72
   8.2693         79
   8.2879         60
   8.3065         59
   8.3250         74
   8.3436         59
   8.3622         62
   8.3808         49
   8.3993         60
   8.4179         79
   8.4365         67
   8.4551         65
   8.4736         77
   8.4922         70
   8.5108         60
   8.5294         79
   8.5479         85
   8.5665         66
   8.5851         69
   8.6037         63
   8.6222         66
   8.6408         81
   8.6594         63
   8.6780         79
   8.6965         95
   8.7151         59
   8.7337         66
   8.7523         68
   8.7708         58
   8.7894         92
   8.8080         68
   8.8266         76
   8.8451         74
   8.8637         85
   8.8823         80
   8.9009         71
   8.9195         80
   8.9380         86
   8.9566         61
   8.9752         69
   8.9938         73
   9.0123         81
   9.0309         76
   9.0495         73
   9.0681         79
   9.0866         75
   9.1052         74
   9.1238         57
   9.1424         75
   9.1609         78
   9.1795         70
   9.1981         74
   9.2167         74
   9.2352         65
   9.2538         80
   9.2724         75
   9.2910         86
   9.3095         73
   9.3281         77
   9.3467         76
   9.3653         74
   9.3838         79
   9.4024         71
   9.4210         81
   9.4396         97
   9.4581         76
   9.4767         64
   9.4953         87
   9.5139         75
   9.5324         79
   9.5510         97
   9.5696         79
   9.5882         77
   9.6067         75
   9.6253         97
   9.6439         66
   9.6625        102
   9.6811         77
   9.6996         85
   9.7182         86
   9.7368         68
   9.7554         71
   9.7739         80
   9.7925         86
   9.8111         69
   9.8297         84
   9.8482         82
   9.8668         92
   9.8854         85
   9.9040         85
   9.9225        103
   9.9411         94
   9.9597         87
   9.9783         73
   9.9968         74
  10.0154         87
  10.0340         69
  10.0526         89
  10.0711         85
  10.0897         78
  10.1083         80
  10.1269         91
  10.1454         90
  10.1640         89
  10.1826        103
  10.2012         72
  10.2197         97
  10.2383         83
  10.2569         88
  10.2755         83
  10.2940         86
  10.3126         94
  10.3312         89
  10.3498         73
  10.3683         94
  10.3869         85
  10.4055         73
  10.4241         82
  10.4427         83
  10.4612         90
  10.4798         81
  10.4984         85
  10.5170         77
  10.5355         89
  10.5541         84
  10.5727         95
  10.5913         84
  10.6098         72
  10.6284         79
  10.6470         90
  10.6656         76
  10.6841         83
  10.7027         89
  10.7213         85
  10.7399         82
  10.7584         89
  10.7770         87
  10.7956         84
  10.8142         85
  10.8327         90
  10.8513         84
  10.8699         87
  10.8885         83
  10.9070         79
  10.9256         73
  10.9442         92
  10.9628         89
  10.9813         85
  10.9999         89
  11.0185         81
  11.0371         83
  11.0556         84
  11.0742         75
  11.0928         82
  11.1114         63
  11.1299         86
  11.1485         77
  11.1671         77
  11.1857         91
  11.2043         82
  11.2228         85
  11.2414         97
  11.2600        100
  11.2786        100
  11.2971         84
  11.3157         89
  11.3343         86
  11.3529         73
  11.3714         83
  11.3900         75
  11.4086         88
  11.4272         77
  11.4457         98
  11.4643         69
  11.4829         94
  11.5015         79
  11.5200         77
  11.5386         84
  11.5572         84
  11.5758         91
  11.5943         88
  11.6129         76
  11.6315         93
  11.6501         66
  11.6686         83
  11.6872         72
  11.7058         72
  11.7244         64
  11.7429         76
  11.7615         75
  11.7801         87
  11.7987         83
  11.8172         85
  11.8358         83
  11.8544         77
  11.8730         90
  11.8915         85
  11.9101         88
  11.9287         98
  11.9473         86
  11.9659         95
  11.9844         79
  12.0030         79
  12.0216         86
  12.0402         76
  12.0587         73
  12.0773         79
  12.0959         69
  12.1145         93
  12.1330         72
  12.1516         86
  12.1702         81
  12.1888         70
  12.2073         68
  12.2259         81
  12.2445         84
  12.2631         83
  12.2816         68
  12.3002         76
  12.3188         66
  12.3374         82
  12.3559         77
  12.3745         79
  12.3931         73
  12.4117         97
  12.4302         85
  12.4488         74
  12.4674         80
  12.4860         78
  12.5045         75
  12.5231         85
  12.5417         78
  12.5603         80
  12.5788         74
  12.5974         80
  12.6160         87
  12.6346         75
  12.6531         59
  12.6717         59
  12.6903         66
  12.7089         78
  12.7274         63
  12.7460         70
  12.7646         67
  12.7832         70
  12.8018         77
  12.8203         95
  12.8389         64
  12.8575         77
  12.8761         90
  12.8946         61
  12.9132         76
  12.9318         87
  12.9504         69
  12.9689         62
  12.9875         76
  13.0061         73
  13.0247         81
  13.0432         67
  13.0618         73
  13.0804         60
  13.0990         63
  13.1175         63
  13.1361         64
  13.1547         68
  13.1733         54
  13.1918         80
  13.2104         82
  13.2290         69
  13.2476         74
  13.2661         80
  13.2847         75
  13.3033         67
  13.3219         64
  13.3404         54
  13.3590         64
  13.3776         75
  13.3962         59
  13.4147         61
  13.4333         70
  13.4519         58
  13.4705         70
  13.4890         88
  13.5076         59
  13.5262         72
  13.5448         78
  13.5634         57
  13.5819         76
  13.6005         70
  13.6191         81
  13.6377         71
  13.6562         78
  13.6748         77
  13.6934         65
  13.7120         52
  13.7305         79
  13.7491         67
  13.7677         53
  13.7863         66
  13.8048         68
  13.8234         75
  13.8420         62
  13.8606         72
  13.8791         67
  13.8977         68
  13.9163         85
  13.9349         82
  13.9534         57
  13.9720         57
  13.9906         55
  14.0092         63
  14.0277         56
  14.0463         68
  14.0649         66
  14.0835         75
  14.1020         70
  14.1206         54
  14.1392         57
  14.1578         57
  14.1763         75
  14.1949         80
  14.2135         64
  14.2321         64
  14.2506         54
  14.2692         62
  14.2878         68
  14.3064         64
  14.3250         63
  14.3435         72
  14.3621         65
  14.3807         54
  14.3993         58
  14.4178         75
  14.4364         80
  14.4550         74
  14.4736         70
  14.4921         60
  14.5107         59
  14.5293         62
  14.5479         66
  14.5664         58
  14.5850         78
  14.6036         54
  14.6222         72
  14.6407         69
  14.6593         55
  14.6779         56
  14.6965         64
  14.7150         58
  14.7336         50
  14.7522         58
  14.7708         54
  14.7893         69
  14.8079         69
  14.8265         67
  14.8451         65
  14.8636         66
  14.8822         74
  14.9008         70
  14.9194         65
  14.9379         62
  14.9565         46
  14.9751         54
  14.9937         59
  15.0122         53
  15.0308         66
  15.0494         62
  15.0680         75
  15.0866         55
  15.1051         60
  15.1237         59
  15.1423         48
  15.1609         59
  15.1794         72
  15.1980         50
  15.2166         68
  15.2352         60
  15.2537         48
  15.2723         62
  15.2909         71
  15.3095         59
  15.3280         73
  15.3466         69
  15.3652         65
  15.3838         60
  15.4023         63
  15.4209         53
  15.4395         57
  15.4581         45
  15.4766         64
  15.4952         59
  15.5138         61
  15.5324         60
  15.5509         62
  15.5695         55
  15.5881         61
  15.6067         66
  15.6252         71
  15.6438         63
  15.6624         53
  15.6810         60
  15.6995         78
  15.7181         61
  15.7367         58
  15.7553         64
  15.7738         71
  15.7924         68
  15.8110         60
  15.8296         48
  15.8482         49
  15.8667         62
  15.8853         58
  15.9039         58
  15.9225         57
  15.9410         65
  15.9596         52
  15.9782         63
  15.9968         70
  16.0153         66
  16.0339         61
  16.0525         62
  16.0711         50
  16.0896         51
  16.1082         55
  16.1268         77
  16.1454         67
  16.1639         44
  16.1825         46
  16.2011         52
  16.2197         47
  16.2382         47
  16.2568         47
  16.2754         45
  16.2940         64
  16.3125         62
  16.3311         63
  16.3497         58
  16.3683         56
  16.3868         51
  16.4054         56
  16.4240         57
  16.4426         66
  16.4611         60
  16.4797         68
  16.4983         54
  16.5169         40
  16.5354         42
  16.5540         55
  16.5726         63
  16.5912         56
  16.6097         61
  16.6283         56
  16.6469         62
  16.6655         69
  16.6841         45
  16.7026         51
  16.7212         58
  16.7398         68
  16.7584         43
  16.7769         58
  16.7955         44
  16.8141         61
  16.8327         59
  16.8512         69
  16.8698         57
  16.8884         56
  16.9070         61
  16.9255         64
  16.9441         59
  16.9627         45
  16.9813         71
  16.9998         55
  17.0184         67
  17.0370         51
  17.0556         64
  17.0741         67
  17.0927         55
  17.1113         56
  17.1299         57
  17.1484         60
  17.1670         56
  17.1856         59
  17.2042         61
  17.2227         58
  17.2413         64
  17.2599         61
  17.2785         63
  17.2970         64
  17.3156         65
  17.3342         40
  17.3528         57
  17.3713         63
  17.3899         51
  17.4085         50
  17.4271         68
  17.4457         64
  17.4642         62
  17.4828         52
  17.5014         53
  17.5200         53
  17.5385         67
  17.5571         60
  17.5757         66
  17.5943         59
  17.6128         56
  17.6314         46
  17.6500         60
  17.6686         53
  17.6871         61
  17.7057         62
  17.7243         68
  17.7429         57
  17.7614         46
  17.7800         70
  17.7986         63
  17.8172         66
  17.8357         49
  17.8543         57
  17.8729         52
  17.8915         63
  17.9100         48
  17.9286         59
  17.9472         62
  17.9658         61
  17.9843         57
  18.0029         51
  18.0215         59
  18.0401         54
  18.0586         59
  18.0772         71
  18.0958         75
  18.1144         64
  18.1329         68
  18.1515         60
  18.1701         50
  18.1887         60
  18.2073         57
  18.2258         56
  18.2444         61
  18.2630         57
  18.2816         58
  18.3001         57
  18.3187         61
  18.3373         54
  18.3559         64
  18.3744         57
  18.3930         51
  18.4116         58
  18.4302         64
  18.4487         52
  18.4673         76
  18.4859         59
  18.5045         66
  18.5230         68
  18.5416         71
  18.5602         53
  18.5788         62
  18.5973         51
  18.6159         63
  18.6345         70
  18.6531         73
  18.6716         66
  18.6902         49
  18.7088         69
  18.7274         70
  18.7459         71
  18.7645         58
  18.7831         50
  18.8017         69
  18.8202         57
  18.8388         57
  18.8574         49
  18.8760         62
  18.8945         53
  18.9131         55
  18.9317         63
  18.9503         63
  18.9689         62
  18.9874         65
  19.0060         67
  19.0246         59
  19.0432         65
  19.0617         66
  19.0803         72
  19.0989         59
  19.1175         61
  19.1360         59
  19.1546         53
  19.1732         53
  19.1918         51
  19.2103         59
  19.2289         47
  19.2475         57
  19.2661         71
  19.2846         70
  19.3032         61
  19.3218         51
  19.3404         60
  19.3589         52
  19.3775         55
  19.3961         73
  19.4147         60
  19.4332         67
  19.4518         57
  19.4704         64
  19.4890         73
  19.5075         60
  19.5261         60
  19.5447         62
  19.5633         59
  19.5818         72
  19.6004         63
  19.6190         77
  19.6376         56
  19.6561         51
  19.6747         76
  19.6933         75
  19.7119         79
  19.7305         61
  19.7490         63
  19.7676         50
  19.7862         64
  19.8048         77
  19.8233         47
  19.8419         62
  19.8605         60
  19.8791         58
  19.8976         56
  19.9162         50
  19.9348         62
  19.9534         67
  19.9719         66
  19.9905         68
  20.0091         53
  20.0277         63
  20.0462         64
  20.0648         71
  20.0834         69
  20.1020         70
  20.1205         73
  20.1391         66
  20.1577         61
  20.1763         56
  20.1948         49
  20.2134         57
  20.2320         49
  20.2506         66
  20.2691         72
  20.2877         62
  20.3063         47
  20.3249         54
  20.3434         47
  20.3620         65
  20.3806         71
  20.3992         63
  20.4177         65
  20.4363         68
  20.4549         65
  20.4735         62
  20.4921         76
  20.5106         71
  20.5292         86
  20.5478         66
  20.5664         91
  20.5849         73
  20.6035         78
  20.6221         74
  20.6407         55
  20.6592         67
  20.6778         57
  20.6964         64
  20.7150         66
  20.7335         55
  20.7521         64
  20.7707         88
  20.7893         60
  20.8078         65
  20.8264         74
  20.8450         75
  20.8636         68
  20.8821         68
  20.9007         60
  20.9193         64
  20.9379         58
  20.9564         65
  20.9750         59
  20.9936         63
  21.0122         71
  21.0307         66
  21.0493         72
  21.0679         69
  21.0865         92
  21.1050         66
  21.1236         77
  21.1422         87
  21.1608         94
  21.1793         87
  21.1979        106
  21.2165        128
  21.2351        134
  21.2537        111
  21.2722        107
  21.2908         97
  21.3094        125
  21.3280        194
  21.3465        212
  21.3651        139
  21.3837        132
  21.4023        129
  21.4208         79
  21.4394         64
  21.4580         65
  21.4766         70
  21.4951         72
  21.5137         77
  21.5323         74
  21.5509         69
  21.5694         61
  21.5880         63
  21.6066         60
  21.6252         69
  21.6437         76
  21.6623         68
  21.6809         63
  21.6995         95
  21.7180         67
  21.7366         72
  21.7552         65
  21.7738         64
  21.7923         62
  21.8109         75
  21.8295         55
  21.8481         62
  21.8666         64
  21.8852         61
  21.9038         65
  21.9224         58
  21.9409         73
  21.9595         62
  21.9781         67
  21.9967         66
  22.0152         77
  22.0338         70
  22.0524         67
  22.0710         65
  22.0896         60
  22.1081         68
  22.1267         70
  22.1453         73
  22.1639         67
  22.1824         85
  22.2010         63
  22.2196         63
  22.2382         60
  22.2567         85
  22.2753         70
  22.2939         63
  22.3125         61
  22.3310         75
  22.3496         65
  22.3682         69
  22.3868         60
  22.4053         55
  22.4239         71
  22.4425         60
  22.4611         62
  22.4796         72
  22.4982         74
  22.5168         69
  22.5354         67
  22.5539         70
  22.5725         61
  22.5911         79
  22.6097         79
  22.6282         64
  22.6468         62
  22.6654         71
  22.6840         75
  22.7025         78
  22.7211         59
  22.7397         70
  22.7583         53
  22.7768         56
  22.7954         57
  22.8140         60
  22.8326         73
  22.8512         77
  22.8697         70
  22.8883         87
  22.9069         68
  22.9255         81
  22.9440         77
  22.9626         67
  22.9812         70
  22.9998         60
  23.0183         76
  23.0369         79
  23.0555         88
  23.0741         74
  23.0926         67
  23.1112         65
  23.1298         71
  23.1484         83
  23.1669         64
  23.1855         66
  23.2041         61
  23.2227         69
  23.2412         70
  23.2598         79
  23.2784         73
  23.2970         81
  23.3155         64
  23.3341         76
  23.3527         91
  23.3713         80
  23.3898         55
  23.4084         77
  23.4270         64
  23.4456         79
  23.4641         81
  23.4827         68
  23.5013         69
  23.5199         74
  23.5384         74
  23.5570         80
  23.5756         76
  23.5942         81
  23.6128         73
  23.6313         80
  23.6499         73
  23.6685         75
  23.6871         77
  23.7056         66
  23.7242         74
  23.7428         58
  23.7614         65
  23.7799         73
  23.7985         61
  23.8171         60
  23.8357         62
  23.8542         77
  23.8728         72
  23.8914         75
  23.9100         71
  23.9285         74
  23.9471         62
  23.9657         79
  23.9843         63
  24.0028         80
  24.0214         78
  24.0400         60
  24.0586         72
  24.0771         73
  24.0957         76
  24.1143         78
  24.1329         69
  24.1514         63
  24.1700         77
  24.1886         88
  24.2072         67
  24.2257         68
  24.2443         89
  24.2629         86
  24.2815         98
  24.3000         73
  24.3186         97
  24.3372         70
  24.3558         60
  24.3744         80
  24.3929         53
  24.4115         68
  24.4301         69
  24.4487         76
  24.4672         84
  24.4858         64
  24.5044         76
  24.5230         74
  24.5415         63
  24.5601         65
  24.5787         75
  24.5973         73
  24.6158         82
  24.6344         69
  24.6530         66
  24.6716         60
  24.6901         58
  24.7087         61
  24.7273         68
  24.7459         72
  24.7644         80
  24.7830         64
  24.8016         78
  24.8202         74
  24.8387         70
  24.8573         69
  24.8759         79
  24.8945         76
  24.9130         61
  24.9316         74
  24.9502         68
  24.9688         63
  24.9873         70
  25.0059         76
  25.0245         80
  25.0431         80
  25.0616         71
  25.0802         86
  25.0988         81
  25.1174         69
  25.1360         68
  25.1545         69
  25.1731         66
  25.1917         80
  25.2103         56
  25.2288         67
  25.2474         63
  25.2660         70
  25.2846         79
  25.3031         72
  25.3217         65
  25.3403         82
  25.3589         69
  25.3774         72
  25.3960         66
  25.4146         70
  25.4332         58
  25.4517         68
  25.4703         82
  25.4889         68
  25.5075         76
  25.5260         71
  25.5446         78
  25.5632         66
  25.5818         59
  25.6003         70
  25.6189         87
  25.6375         63
  25.6561         77
  25.6746         77
  25.6932         61
  25.7118         82
  25.7304         67
  25.7489         73
  25.7675         81
  25.7861         60
  25.8047         64
  25.8232         55
  25.8418         76
  25.8604         77
  25.8790         65
  25.8976         65
  25.9161         72
  25.9347         66
  25.9533         78
  25.9719         54
  25.9904         64
  26.0090         77
  26.0276         70
  26.0462         72
  26.0647         64
  26.0833         74
  26.1019         63
  26.1205         60
  26.1390         90
  26.1576         67
  26.1762         80
  26.1948         53
  26.2133         69
  26.2319         70
  26.2505         71
  26.2691         84
  26.2876         69
  26.3062         73
  26.3248         74
  26.3434         69
  26.3619         75
  26.3805         72
  26.3991         73
  26.4177         64
  26.4362         78
  26.4548         63
  26.4734         59
  26.4920         66
  26.5105         65
  26.5291         56
  26.5477         81
  26.5663         76
  26.5848         57
  26.6034         71
  26.6220         81
  26.6406         75
  26.6591         63
  26.6777         76
  26.6963         56
  26.7149         69
  26.7335         63
  26.7520         55
  26.7706         63
  26.7892         55
  26.8078         74
  26.8263         75
  26.8449         65
  26.8635         66
  26.8821         62
  26.9006         59
  26.9192         73
  26.9378         67
  26.9564         67
  26.9749         59
  26.9935         68
  27.0121         71
  27.0307         56
  27.0492         70
  27.0678         73
  27.0864         85
  27.1050         71
  27.1235         65
  27.1421         60
  27.1607         84
  27.1793         80
  27.1978         94
  27.2164         83
  27.2350         77
  27.2536         85
  27.2721         80
  27.2907         87
  27.3093         80
  27.3279         88
  27.3464         83
  27.3650         76
  27.3836         61
  27.4022         74
  27.4207         60
  27.4393         60
  27.4579         75
  27.4765         59
  27.4951         71
  27.5136         63
  27.5322         62
  27.5508         80
  27.5694         67
  27.5879         63
  27.6065         69
  27.6251         66
  27.6437         78
  27.6622         68
  27.6808         57
  27.6994         73
  27.7180         59
  27.7365         62
  27.7551         62
  27.7737         59
  27.7923         55
  27.8108         56
  27.8294         57
  27.8480         70
  27.8666         61
  27.8851         62
  27.9037         68
  27.9223         59
  27.9409         53
  27.9594         67
  27.9780         62
  27.9966         55
  28.0152         68
  28.0337         63
  28.0523         71
  28.0709         61
  28.0895         59
  28.1080         65
  28.1266         64
  28.1452         65
  28.1638         58
  28.1823         43
  28.2009         62
  28.2195         58
  28.2381         62
  28.2567         72
  28.2752         54
  28.2938         58
  28.3124         49
  28.3310         53
  28.3495         77
  28.3681         59
  28.3867         51
  28.4053         77
  28.4238         60
  28.4424         84
  28.4610         54
  28.4796         58
  28.4981         68
  28.5167         67
  28.5353         70
  28.5539         54
  28.5724         60
  28.5910         66
  28.6096         55
  28.6282         57
  28.6467         63
  28.6653         60
  28.6839         71
  28.7025         66
  28.7210         71
  28.7396         62
  28.7582         57
  28.7768         51
  28.7953         53
  28.8139         71
  28.8325         57
  28.8511         61
  28.8696         52
  28.8882         45
  28.9068         61
  28.9254         67
  28.9439         61
  28.9625         57
  28.9811         72
  28.9997         43
  29.0183         59
  29.0368         55
  29.0554         60
  29.0740         59
  29.0926         49
  29.1111         64
  29.1297         61
  29.1483         49
  29.1669         50
  29.1854         59
  29.2040         62
  29.2226         58
  29.2412         49
  29.2597         64
  29.2783         43
  29.2969         69
  29.3155         55
  29.3340         66
  29.3526         56
  29.3712         55
  29.3898         61
  29.4083         61
  29.4269         53
  29.4455         70
  29.4641         62
  29.4826         70
  29.5012         55
  29.5198         49
  29.5384         65
  29.5569         67
  29.5755         68
  29.5941         60
  29.6127         61
  29.6312         56
  29.6498         63
  29.6684         58
  29.6870         56
  29.7055         58
  29.7241         55
  29.7427         73
  29.7613         37
  29.7799         65
  29.7984         59
  29.8170         48
  29.8356         60
  29.8542         51
  29.8727         59
  29.8913         55
  29.9099         57
  29.9285         56
  29.9470         62
  29.9656         46
  29.9842         59
  30.0028         58
  30.0213         56
  30.0399         60
  30.0585         52
  30.0771         54
  30.0956         56
  30.1142         63
  30.1328         60
  30.1514         61
  30.1699         67
  30.1885         53
  30.2071         49
  30.2257         42
  30.2442         61
  30.2628         64
  30.2814         72
  30.3000         67
  30.3185         68
  30.3371         96
  30.3557        121
  30.3743        119
  30.3928         93
  30.4114         81
  30.4300         92
  30.4486         91
  30.4671         57
  30.4857         72
  30.5043         58
  30.5229         62
  30.5415         53
  30.5600         68
  30.5786         62
  30.5972         69
  30.6158         52
  30.6343         63
  30.6529         63
  30.6715         61
  30.6901         62
  30.7086         52
  30.7272         63
  30.7458         51
  30.7644         46
  30.7829         56
  30.8015         48
  30.8201         42
  30.8387         43
  30.8572         51
  30.8758         62
  30.8944         59
  30.9130         45
  30.9315         56
  30.9501         66
  30.9687         45
  30.9873         41
  31.0058         44
  31.0244         61
  31.0430         55
  31.0616         42
  31.0801         43
  31.0987         59
  31.1173         51
  31.1359         51
  31.1544         54
  31.1730         48
  31.1916         57
  31.2102         48
  31.2287         58
  31.2473         66
  31.2659         46
  31.2845         44
  31.3030         56
  31.3216         52
  31.3402         43
  31.3588         48
  31.3774         45
  31.3959         47
  31.4145         57
  31.4331         50
  31.4517         51
  31.4702         66
  31.4888         48
  31.5074         45
  31.5260         53
  31.5445         49
  31.5631         55
  31.5817         51
  31.6003         63
  31.6188         67
  31.6374         58
  31.6560         60
  31.6746         63
  31.6931         51
  31.7117         58
  31.7303         44
  31.7489         39
  31.7674         38
  31.7860         58
  31.8046         56
  31.8232         40
  31.8417         40
  31.8603         51
  31.8789         48
  31.8975         55
  31.9160         46
  31.9346         49
  31.9532         46
  31.9718         36
  31.9903         54
  32.0089         35
  32.0275         50
  32.0461         43
  32.0646         51
  32.0832         46
  32.1018         51
  32.1204         47
  32.1390         52
  32.1575         37
  32.1761         49
  32.1947         45
  32.2133         57
  32.2318         59
  32.2504         45
  32.2690         45
  32.2876         44
  32.3061         36
  32.3247         48
  32.3433         50
  32.3619         38
  32.3804         53
  32.3990         51
  32.4176         48
  32.4362         55
  32.4547         55
  32.4733         47
  32.4919         46
  32.5105         53
  32.5290         55
  32.5476         56
  32.5662         50
  32.5848         60
  32.6033         50
  32.6219         48
  32.6405         41
  32.6591         37
  32.6776         38
  32.6962         57
  32.7148         49
  32.7334         49
  32.7519         38
  32.7705         48
  32.7891         39
  32.8077         43
  32.8262         42
  32.8448         51
  32.8634         44
  32.8820         37
  32.9006         45
  32.9191         54
  32.9377         50
  32.9563         40
  32.9749         55
  32.9934         40
  33.0120         37
  33.0306         43
  33.0492         37
  33.0677         54
  33.0863         41
  33.1049         39
  33.1235         50
  33.1420         52
  33.1606         41
  33.1792         45
  33.1978         47
  33.2163         49
  33.2349         44
  33.2535         47
  33.2721         42
  33.2906         38
  33.3092         34
  33.3278         42
  33.3464         47
  33.3649         54
  33.3835         51
  33.4021         38
  33.4207         37
  33.4392         48
  33.4578         38
  33.4764         48
  33.4950         48
  33.5135         40
  33.5321         39
  33.5507         43
  33.5693         48
  33.5878         57
  33.6064         36
  33.6250         42
  33.6436         41
  33.6622         48
  33.6807         56
  33.6993         48
  33.7179         32
  33.7365         44
  33.7550         34
  33.7736         40
  33.7922         43
  33.8108         44
  33.8293         30
  33.8479         41
  33.8665         44
  33.8851         43
  33.9036         44
  33.9222         49
  33.9408         39
  33.9594         49
  33.9779         53
  33.9965         46
  34.0151         53
  34.0337         45
  34.0522         49
  34.0708         33
  34.0894         60
  34.1080         35
  34.1265         35
  34.1451         30
  34.1637         44
  34.1823         38
  34.2008         35
  34.2194         40
  34.2380         49
  34.2566         42
  34.2751         35
  34.2937         52
  34.3123         50
  34.3309         30
  34.3494         43
  34.3680         39
  34.3866         54
  34.4052         37
  34.4238         48
  34.4423         40
  34.4609         35
  34.4795         46
  34.4981         48
  34.5166         39
  34.5352         47
  34.5538         49
  34.5724         36
  34.5909         41
  34.6095         40
  34.6281         40
  34.6467         48
  34.6652         46
  34.6838         35
  34.7024         43
  34.7210         55
  34.7395         60
  34.7581         48
  34.7767         44
  34.7953         50
  34.8138         53
  34.8324         43
  34.8510         55
  34.8696         55
  34.8881         53
  34.9067         45
  34.9253         58
  34.9439         36
  34.9624         36
  34.9810         39
  34.9996         34
  35.0182         37
  35.0367         33
  35.0553         35
  35.0739         43
  35.0925         37
  35.1110         35
  35.1296         38
  35.1482         49
  35.1668         44
  35.1854         35
  35.2039         39
  35.2225         39
  35.2411         32
  35.2597         35
  35.2782         31
  35.2968         36
  35.3154         46
  35.3340         42
  35.3525         32
  35.3711         36
  35.3897         33
  35.4083         42
  35.4268         35
  35.4454         43
  35.4640         34
  35.4826         27
  35.5011         29
  35.5197         34
  35.5383         36
  35.5569         38
  35.5754         36
  35.5940         32
  35.6126         26
  35.6312         39
  35.6497         38
  35.6683         33
  35.6869         44
  35.7055         51
  35.7240         41
  35.7426         39
  35.7612         46
  35.7798         36
  35.7983         40
  35.8169         45
  35.8355         41
  35.8541         47
  35.8726         27
  35.8912         33
  35.9098         39
  35.9284         39
  35.9469         39
  35.9655         42
  35.9841         32
  36.0027         31
  36.0213         35
  36.0398         44
  36.0584         46
  36.0770         46
  36.0956         29
  36.1141         37
  36.1327         37
  36.1513         35
  36.1699         35
  36.1884         33
  36.2070         35
  36.2256         41
  36.2442         29
  36.2627         20
  36.2813         36
  36.2999         30
  36.3185         37
  36.3370         31
  36.3556         37
  36.3742         33
  36.3928         31
  36.4113         33
  36.4299         28
  36.4485         33
  36.4671         40
  36.4856         36
  36.5042         39
  36.5228         46
  36.5414         37
  36.5599         36
  36.5785         36
  36.5971         32
  36.6157         33
  36.6342         35
  36.6528         40
  36.6714         39
  36.6900         31
  36.7085         22
  36.7271         32
  36.7457         35
  36.7643         29
  36.7829         30
  36.8014         37
  36.8200         32
  36.8386         26
  36.8572         33
  36.8757         25
  36.8943         26
  36.9129         38
  36.9315         36
  36.9500         40
  36.9686         42
  36.9872         31
  37.0058         23
  37.0243         36
  37.0429         36
  37.0615         27
  37.0801         37
  37.0986         41
  37.1172         44
  37.1358         40
  37.1544         32
  37.1729         42
  37.1915         31
  37.2101         51
  37.2287         23
  37.2472         37
  37.2658         22
  37.2844         23
  37.3030         42
  37.3215         32
  37.3401         27
  37.3587         36
  37.3773         46
  37.3958         50
  37.4144         46
  37.4330         53
  37.4516         44
  37.4701         45
  37.4887         48
  37.5073         39
  37.5259         47
  37.5445         38
  37.5630         46
  37.5816         43
  37.6002         32
  37.6188         26
  37.6373         27
  37.6559         32
  37.6745         30
  37.6931         23
  37.7116         31
  37.7302         26
  37.7488         33
  37.7674         35
  37.7859         33
  37.8045         30
  37.8231         28
  37.8417         35
  37.8602         50
  37.8788         39
  37.8974         21
  37.9160         25
  37.9345         39
  37.9531         33
  37.9717         37
  37.9903         23
  38.0088         29
  38.0274         38
  38.0460         27
  38.0646         29
  38.0831         35
  38.1017         34
  38.1203         42
  38.1389         40
  38.1574         37
  38.1760         31
  38.1946         25
  38.2132         31
  38.2317         27
  38.2503         29
  38.2689         23
  38.2875         40
  38.3061         26
  38.3246         25
  38.3432         27
  38.3618         32
  38.3804         23
  38.3989         20
  38.4175         32
  38.4361         35
  38.4547         26
  38.4732         23
  38.4918         37
  38.5104         32
  38.5290         36
  38.5475         36
  38.5661         26
  38.5847         20
  38.6033         25
  38.6218         30
  38.6404         39
  38.6590         38
  38.6776         32
  38.6961         26
  38.7147         34
  38.7333         25
  38.7519         38
  38.7704         38
  38.7890         39
  38.8076         31
  38.8262         38
  38.8447         31
  38.8633         28
  38.8819         21
  38.9005         26
  38.9190         27
  38.9376         25
  38.9562         34
  38.9748         27
  38.9933         29
  39.0119         33
  39.0305         27
  39.0491         27
  39.0677         32
  39.0862         40
  39.1048         25
  39.1234         36
  39.1420         28
  39.1605         37
  39.1791         27
  39.1977         31
  39.2163         29
  39.2348         29
  39.2534         32
  39.2720         23
  39.2906         32
  39.3091         24
  39.3277         33
  39.3463         24
  39.3649         28
  39.3834         20
  39.4020         27
  39.4206         25
  39.4392         27
  39.4577         35
  39.4763         31
  39.4949         28
  39.5135         26
  39.5320         20
  39.5506         27
  39.5692         29
  39.5878         27
  39.6063         32
  39.6249         33
  39.6435         38
  39.6621         29
  39.6806         22
  39.6992         27
  39.7178         31
  39.7364         32
  39.7549         26
  39.7735         23
  39.7921         24
  39.8107         32
  39.8293         23
  39.8478         25
  39.8664         32
  39.8850         25
  39.9036         33
  39.9221         33
  39.9407         26
  39.9593         35
  39.9779         31
  39.9964         36
  40.0150         18
  40.0336         38
  40.0522         31
  40.0707         27
  40.0893         21
  40.1079         32
  40.1265         30
  40.1450         27
  40.1636         22
  40.1822         31
  40.2008         29
  40.2193         24
  40.2379         25
  40.2565         12
  40.2751         23
  40.2936         29
  40.3122         26
  40.3308         34
  40.3494         31
  40.3679         35
  40.3865         26
  40.4051         16
  40.4237         27
  40.4422         27
  40.4608         30
  40.4794         40
  40.4980         17
  40.5165         19
  40.5351         23
  40.5537         15
  40.5723         25
  40.5908         19
  40.6094         23
  40.6280         34
  40.6466         25
  40.6652         52
  40.6837         28
  40.7023         31
  40.7209         21
  40.7395         23
  40.7580         34
  40.7766         30
  40.7952         21
  40.8138         34
  40.8323         33
  40.8509         23
  40.8695         32
  40.8881         28
  40.9066         24
  40.9252         32
  40.9438         34
  40.9624         28
  40.9809         31
  40.9995         36
  41.0181         26
  41.0367         35
  41.0552         26
  41.0738         26
  41.0924         29
  41.1110         18
  41.1295         31
  41.1481         32
  41.1667         20
  41.1853         30
  41.2038         30
  41.2224         16
  41.2410         24
  41.2596         22
  41.2781         29
  41.2967         27
  41.3153         19
  41.3339         31
  41.3524         26
  41.3710         24
  41.3896         20
  41.4082         31
  41.4268         30
  41.4453         22
  41.4639         30
  41.4825         24
  41.5011         28
  41.5196         21
  41.5382         24
  41.5568         29
  41.5754         32
  41.5939         25
  41.6125         28
  41.6311         27
  41.6497         28
  41.6682         26
  41.6868         30
  41.7054         28
  41.7240         29
  41.7425         26
  41.7611         27
  41.7797         32
  41.7983         22
  41.8168         27
  41.8354         26
  41.8540         28
  41.8726         32
  41.8911         29
  41.9097         20
  41.9283         31
  41.9469         22
  41.9654         34
  41.9840         39
  42.0026         27
  42.0212         38
  42.0397         17
  42.0583         31
  42.0769         32
  42.0955         24
  42.1140         30
  42.1326         24
  42.1512         26
  42.1698         24
  42.1884         29
  42.2069         25
  42.2255         28
  42.2441         29
  42.2627         32
  42.2812         23
  42.2998         28
  42.3184         24
  42.3370         23
  42.3555         22
  42.3741         25
  42.3927         33
  42.4113         27
  42.4298         20
  42.4484         32
  42.4670         28
  42.4856         26
  42.5041         26
  42.5227         38
  42.5413         31
  42.5599         33
  42.5784         27
  42.5970         19
  42.6156         24
  42.6342         28
  42.6527         24
  42.6713         22
  42.6899         21
  42.7085         21
  42.7270         25
  42.7456         22
  42.7642         27
  42.7828         29
  42.8013         28
  42.8199         21
  42.8385         27
  42.8571         26
  42.8756         28
  42.8942         30
  42.9128         30
  42.9314         19
  42.9500         22
  42.9685         18
  42.9871         25
  43.0057         25
  43.0243         28
  43.0428         24
  43.0614         18
  43.0800         19
  43.0986         27
  43.1171         24
  43.1357         28
  43.1543         23
  43.1729         30
  43.1914         22
  43.2100         36
  43.2286         34
  43.2472         39
  43.2657         28
  43.2843         40
  43.3029         32
  43.3215         27
  43.3400         30
  43.3586         32
  43.3772         23
  43.3958         34
  43.4143         28
  43.4329         27
  43.4515         40
  43.4701         32
  43.4886         51
  43.5072         32
  43.5258         35
  43.5444         40
  43.5629         27
  43.5815         42
  43.6001         40
  43.6187         41
  43.6372         36
  43.6558         26
  43.6744         31
  43.6930         25
  43.7116         28
  43.7301         25
  43.7487         32
  43.7673         24
  43.7859         25
  43.8044         16
  43.8230         19
  43.8416         37
  43.8602         18
  43.8787         23
  43.8973         20
  43.9159         27
  43.9345         33
  43.9530         25
  43.9716         22
  43.9902         27
  44.0088         28
  44.0273         36
  44.0459         24
  44.0645         27
  44.0831         22
  44.1016         31
  44.1202         22
  44.1388         21
  44.1574         25
  44.1759         23
  44.1945         22
  44.2131         23
  44.2317         26
  44.2502         30
  44.2688         38
  44.2874         24
  44.3060         24
  44.3245         24
  44.3431         21
  44.3617         30
  44.3803         39
  44.3988         17
  44.4174         25
  44.4360         30
  44.4546         21
  44.4732         23
  44.4917         21
  44.5103         28
  44.5289         17
  44.5475         21
  44.5660         30
  44.5846         24
  44.6032         33
  44.6218         32
  44.6403         26
  44.6589         30
  44.6775         28
  44.6961         24
  44.7146         30
  44.7332         25
  44.7518         29
  44.7704         29
  44.7889         18
  44.8075         29
  44.8261         24
  44.8447         31
  44.8632         23
  44.8818         24
  44.9004         24
  44.9190         19
  44.9375         29
  44.9561         28
  44.9747         22
  44.9933         24
  45.0118         24
  45.0304         25
  45.0490         21
  45.0676         33
  45.0861         33
  45.1047         20
  45.1233         29
  45.1419         38
  45.1604         23
  45.1790         30
  45.1976         27
  45.2162         31
  45.2347         26
  45.2533         23
  45.2719         27
  45.2905         27
  45.3091         25
  45.3276         15
  45.3462         27
  45.3648         26
  45.3834         21
  45.4019         25
  45.4205         26
  45.4391         25
  45.4577         33
  45.4762         24
  45.4948         24
  45.5134         32
  45.5320         22
  45.5505         22
  45.5691         23
  45.5877         29
  45.6063         28
  45.6248         24
  45.6434         28
  45.6620         27
  45.6806         19
  45.6991         30
  45.7177         20
  45.7363         30
  45.7549         16
  45.7734         26
  45.7920         21
  45.8106         18
  45.8292         22
  45.8477         29
  45.8663         27
  45.8849         24
  45.9035         21
  45.9220         22
  45.9406         29
  45.9592         25
  45.9778         17
  45.9963         21
  46.0149         15
  46.0335         29
  46.0521         25
  46.0707         24
  46.0892         20
  46.1078         18
  46.1264         24
  46.1450         27
  46.1635         22
  46.1821         25
  46.2007         23
  46.2193         22
  46.2378         26
  46.2564         32
  46.2750         24
  46.2936         23
  46.3121         24
  46.3307         23
  46.3493         25
  46.3679         24
  46.3864         31
  46.4050         28
  46.4236         19
  46.4422         20
  46.4607         23
  46.4793         28
  46.4979         19
  46.5165         22
  46.5350         22
  46.5536         21
  46.5722         24
  46.5908         29
  46.6093         21
  46.6279         21
  46.6465         24
  46.6651         26
  46.6836         13
  46.7022         21
  46.7208         25
  46.7394         25
  46.7579         21
  46.7765         26
  46.7951         24
  46.8137         28
  46.8323         18
  46.8508         17
  46.8694         26
  46.8880         34
  46.9066         24
  46.9251         23
  46.9437         31
  46.9623         14
  46.9809         30
  46.9994         24
  47.0180         32
  47.0366         22
  47.0552         24
  47.0737         30
  47.0923         23
  47.1109         22
  47.1295         28
  47.1480         24
  47.1666         27
  47.1852         22
  47.2038         26
  47.2223         25
  47.2409         18
  47.2595         19
  47.2781         17
  47.2966         21
  47.3152         26
  47.3338         26
  47.3524         26
  47.3709         24
  47.3895         26
  47.4081         14
  47.4267         34
  47.4452         21
  47.4638         19
  47.4824         23
  47.5010         25
  47.5195         15
  47.5381         25
  47.5567         23
  47.5753         27
  47.5939         16
  47.6124         32
  47.6310         24
  47.6496         19
  47.6682         22
  47.6867         28
  47.7053         23
  47.7239         19
  47.7425         21
  47.7610         21
  47.7796         34
  47.7982         23
  47.8168         25
  47.8353         19
  47.8539         24
  47.8725         29
  47.8911         28
  47.9096         23
  47.9282         31
  47.9468         22
  47.9654         17
  47.9839         15
  48.0025         22
  48.0211         21
  48.0397         23
  48.0582         20
  48.0768         19
  48.0954         26
  48.1140         25
  48.1325         26
  48.1511         29
  48.1697         23
  48.1883         24
  48.2068         26
  48.2254         14
  48.2440         22
  48.2626         27
  48.2811         19
  48.2997         24
  48.3183         23
  48.3369         21
  48.3555         26
  48.3740         16
  48.3926         22
  48.4112         32
  48.4298         17
  48.4483         27
  48.4669         21
  48.4855         30
  48.5041         24
  48.5226          8
  48.5412         32
  48.5598         17
  48.5784         21
  48.5969         22
  48.6155         26
  48.6341         17
  48.6527         27
  48.6712         20
  48.6898         15
  48.7084         26
  48.7270         18
  48.7455         18
  48.7641         27
  48.7827         21
  48.8013         26
  48.8198         26
  48.8384         20
  48.8570         26
  48.8756         23
  48.8941         29
  48.9127         39
  48.9313         40
  48.9499         44
  48.9684         32
  48.9870         37
  49.0056         30
  49.0242         27
  49.0427         25
  49.0613         35
  49.0799         37
  49.0985         32
  49.1171         28
  49.1356         29
  49.1542         18
  49.1728         20
  49.1914         20
  49.2099         16
  49.2285         26
  49.2471         33
  49.2657         26
  49.2842         19
  49.3028         27
  49.3214         13
  49.3400         23
  49.3585         26
  49.3771         18
  49.3957         29
  49.4143         24
  49.4328         32
  49.4514         22
  49.4700         26
  49.4886         20
  49.5071         19
  49.5257         21
  49.5443         26
  49.5629         21
  49.5814         26
  49.6000         20
  49.6186         36
  49.6372         21
  49.6557         25
  49.6743         26
  49.6929         18
  49.7115         22
  49.7300         17
  49.7486         12
  49.7672         24
  49.7858         35
  49.8043         26
  49.8229         26
  49.8415         22
  49.8601         21
  49.8786         17
  49.8972         27
  49.9158         20
  49.9344         22
  49.9530         22
  49.9715         18
  49.9901         17
  50.0087         25
  50.0273         20
  50.0458         25
  50.0644         29
  50.0830         20
  50.1016         25
  50.1201         17
  50.1387         22
  50.1573         25
  50.1759         27
  50.1944         19
  50.2130         19
  50.2316         20
  50.2502         24
  50.2687         19
  50.2873         30
  50.3059         24
  50.3245         26
  50.3430         23
  50.3616         25
  50.3802         29
  50.3988         14
  50.4173         16
  50.4359         17
  50.4545         29
  50.4731         25
  50.4916         19
  50.5102         20
  50.5288         27
  50.5474         21
  50.5659         19
  50.5845         26
  50.6031         25
  50.6217         26
  50.6402         27
  50.6588         20
  50.6774         20
  50.6960         16
  50.7146         24
  50.7331         21
  50.7517         16
  50.7703         18
  50.7889         26
  50.8074         15
  50.8260         22
  50.8446         23
  50.8632         19
  50.8817         16
  50.9003         16
  50.9189         25
  50.9375         20
  50.9560         27
  50.9746         23
  50.9932         18
  51.0118         23
  51.0303         26
  51.0489         24
  51.0675         26
  51.0861         17
  51.1046         26
  51.1232         22
  51.1418         22
  51.1604         13
  51.1789         23
  51.1975         23
  51.2161         16
  51.2347         15
  51.2532         21
  51.2718         16
  51.2904         18
  51.3090         26
  51.3275         19
  51.3461         18
  51.3647         29
  51.3833         24
  51.4018         24
  51.4204         16
  51.4390         24
  51.4576         31
  51.4762         31
  51.4947         36
  51.5133         21
  51.5319         29
  51.5505         26
  51.5690         29
  51.5876         22
  51.6062         31
  51.6248         27
  51.6433         17
  51.6619         17
  51.6805         23
  51.6991         28
  51.7176         24
  51.7362         22
  51.7548         22
  51.7734         26
  51.7919         20
  51.8105         30
  51.8291         23
  51.8477         23
  51.8662         22
  51.8848         21
  51.9034         33
  51.9220         28
  51.9405         36
  51.9591         20
  51.9777         32
  51.9963         22
  52.0148         21
  52.0334         19
  52.0520         18
  52.0706         22
  52.0891         23
  52.1077         19
  52.1263         31
  52.1449         23
  52.1634         11
  52.1820         16
  52.2006         21
  52.2192         13
  52.2378         17
  52.2563         19
  52.2749         22
  52.2935         22
  52.3121         18
  52.3306         16
  52.3492         17
  52.3678         15
  52.3864         20
  52.4049         25
  52.4235         23
  52.4421         23
  52.4607         20
  52.4792         26
  52.4978         22
  52.5164         26
  52.5350         22
  52.5535         14
  52.5721         26
  52.5907         21
  52.6093         14
  52.6278         23
  52.6464         28
  52.6650         19
  52.6836         15
  52.7021         24
  52.7207         22
  52.7393         22
  52.7579         17
  52.7764         23
  52.7950         20
  52.8136         10
  52.8322         28
  52.8507         24
  52.8693         16
  52.8879         17
  52.9065         21
  52.9250         21
  52.9436         23
  52.9622         27
  52.9808         27
  52.9994         27
  53.0179         20
  53.0365         26
  53.0551         20
  53.0737         22
  53.0922         15
  53.1108         16
  53.1294         23
  53.1480         21
  53.1665         19
  53.1851         28
  53.2037         28
  53.2223         19
  53.2408         29
  53.2594         28
  53.2780         14
  53.2966         17
  53.3151         14
  53.3337         22
  53.3523         22
  53.3709         16
  53.3894         27
  53.4080         29
  53.4266         24
  53.4452         15
  53.4637         20
  53.4823         21
  53.5009         23
  53.5195         24
  53.5380         22
  53.5566         19
  53.5752         17
  53.5938         19
  53.6123         19
  53.6309         19
  53.6495         25
  53.6681         19
  53.6866         28
  53.7052         20
  53.7238         30
  53.7424         16
  53.7610         22
  53.7795         27
  53.7981         24
  53.8167         25
  53.8353         17
  53.8538         21
  53.8724         27
  53.8910         19
  53.9096         24
  53.9281         26
  53.9467         23
  53.9653         33
  53.9839         23
  54.0024         30
  54.0210         39
  54.0396         24
  54.0582         42
  54.0767         18
  54.0953         17
  54.1139         22
  54.1325         22
  54.1510         33
  54.1696         22
  54.1882         18
  54.2068         21
  54.2253         25
  54.2439         29
  54.2625         29
  54.2811         21
  54.2996         22
  54.3182         22
  54.3368         12
  54.3554         24
  54.3739         20
  54.3925         35
  54.4111         16
  54.4297         22
  54.4482         20
  54.4668         18
  54.4854         13
  54.5040         26
  54.5225         24
  54.5411         26
  54.5597         24
  54.5783         21
  54.5969         21
  54.6154         22
  54.6340         24
  54.6526         23
  54.6712         13
  54.6897         12
  54.7083         16
  54.7269         28
  54.7455         20
  54.7640         19
  54.7826         22
  54.8012         12
  54.8198         26
  54.8383         18
  54.8569         22
  54.8755         25
  54.8941         25
  54.9126         25
  54.9312         24
  54.9498         32
  54.9684         19
  54.9869         13
  55.0055         14
  55.0241         23
  55.0427         24
  55.0612         19
  55.0798         17
  55.0984         19
  55.1170         22
  55.1355         21
  55.1541         18
  55.1727         16
  55.1913         13
  55.2098         24
  55.2284         25
  55.2470         17
  55.2656         17
  55.2841         18
  55.3027         21
  55.3213         20
  55.3399         31
  55.3585         11
  55.3770         22
  55.3956         21
  55.4142         22
  55.4328         17
  55.4513         20
  55.4699         27
  55.4885         12
  55.5071         25
  55.5256         21
  55.5442         19
  55.5628         23
  55.5814         19
  55.5999         20
  55.6185         25
  55.6371         25
  55.6557         25
  55.6742         22
  55.6928         23
  55.7114         25
  55.7300         22
  55.7485         19
  55.7671         23
  55.7857         18
  55.8043         28
  55.8228         25
  55.8414         23
  55.8600         10
  55.8786         22
  55.8971         25
  55.9157         27
  55.9343         26
  55.9529         17
  55.9714         23
  55.9900         24
  56.0086         16
  56.0272         23
  56.0457         17
  56.0643         22
  56.0829         23
  56.1015         18
  56.1201         22
  56.1386         18
  56.1572         15
  56.1758         27
  56.1944         23
  56.2129         21
  56.2315         26
  56.2501         18
  56.2687         24
  56.2872         32
  56.3058         25
  56.3244         19
  56.3430         21
  56.3615         33
  56.3801         20
  56.3987         12
  56.4173         20
  56.4358         30
  56.4544         21
  56.4730         26
  56.4916         24
  56.5101         19
  56.5287         19
  56.5473         12
  56.5659         21
  56.5844         20
  56.6030         23
  56.6216         17
  56.6402         21
  56.6587         23
  56.6773         21
  56.6959         10
  56.7145         13
  56.7330         19
  56.7516         27
  56.7702         22
  56.7888         15
  56.8073         21
  56.8259         21
  56.8445         23
  56.8631         20
  56.8817         21
  56.9002         26
  56.9188         16
  56.9374         23
  56.9560         21
  56.9745         11
  56.9931         22
  57.0117         18
  57.0303         17
  57.0488         17
  57.0674         28
  57.0860         25
  57.1046         21
  57.1231         16
  57.1417         23
  57.1603         20
  57.1789         19
  57.1974         16
  57.2160         20
  57.2346         33
  57.2532         15
  57.2717         16
  57.2903         25
  57.3089         25
  57.3275         26
  57.3460         17
  57.3646         28
  57.3832         18
  57.4018         31
  57.4203         13
  57.4389         26
  57.4575         19
  57.4761         22
  57.4946         16
  57.5132         19
  57.5318         18
  57.5504         22
  57.5689         21
  57.5875         24
  57.6061         26
  57.6247         20
  57.6433         18
  57.6618         11
  57.6804         15
  57.6990         25
  57.7176         12
  57.7361         13
  57.7547         30
  57.7733         24
  57.7919         16
  57.8104         18
  57.8290         29
  57.8476         24
  57.8662         24
  57.8847         15
  57.9033         25
  57.9219         16
  57.9405         10
  57.9590         18
  57.9776         16
  57.9962         20
  58.0148         17
  58.0333         12
  58.0519         22
  58.0705         22
  58.0891         15
  58.1076         14
  58.1262         21
  58.1448         18
  58.1634         16
  58.1819         24
  58.2005         15
  58.2191         19
  58.2377         18
  58.2562         18
  58.2748         20
  58.2934         22
  58.3120         27
  58.3305         15
  58.3491         22
  58.3677         15
  58.3863         13
  58.4049         25
  58.4234         19
  58.4420         18
  58.4606         22
  58.4792         16
  58.4977         19
  58.5163         21
  58.5349         18
  58.5535         17
  58.5720         20
  58.5906         17
  58.6092         28
  58.6278         24
  58.6463         19
  58.6649         20
  58.6835         15
  58.7021         17
  58.7206         25
  58.7392         23
  58.7578         16
  58.7764         23
  58.7949         19
  58.8135         22
  58.8321         21
  58.8507         18
  58.8692         15
  58.8878         24
  58.9064         26
  58.9250         22
  58.9435         21
  58.9621         19
  58.9807         24
  58.9993         17
  59.0178         26
  59.0364         20
  59.0550         25
  59.0736         16
  59.0921         17
  59.1107         21
  59.1293         22
  59.1479         21
  59.1664         25
  59.1850         17
  59.2036         26
  59.2222         21
  59.2408         22
  59.2593         17
  59.2779         24
  59.2965         16
  59.3151         15
  59.3336         21
  59.3522         12
  59.3708         20
  59.3894         22
  59.4079         16
  59.4265         15
  59.4451         26
  59.4637         19
  59.4822         22
  59.5008         21
  59.5194         16
  59.5380         28
  59.5565         17
  59.5751         26
  59.5937         17
  59.6123         23
  59.6308         13
  59.6494         27
  59.6680         25
  59.6866         22
  59.7051         14
  59.7237         25
  59.7423         24
  59.7609         32
  59.7794         13
  59.7980         25
  59.8166         14
  59.8352         22
  59.8537         19
  59.8723         28
  59.8909         17
  59.9095         13
  59.9280         15
  59.9466         18
  59.9652         22
  59.9838         17
  60.0024         18
