; (content of file Y:\Sam\Apurva-07-20-2022\puck2\ML_20220720_31_SJD_0_LaB6-1min.raw)
_FILEVERSION = 3
_SAMPLE = ML_20220720_31_SJD_0_LaB6-1mi
_+SAMPLE = 
_SITE = USA
_USER = Administrator
_GONIOMETER_CODE = 20
; Goniometer : D8 theta/2theta, stage : Unknown
_ATTACHMENTS_CODE = 0
_GONIOMETER_RADIUS = 200.5
_FIXED_DIVSLIT = 0.6
_FIXED_SAMPLESLIT = 0
_SOLLER_SLITS = 2
_FIXED_DETSLIT = 9.55
_MONOCHROMATOR = 0
; Incident beam monochromator : None
_SOLLER_SLITS_2 = N
_THIN_FILM = N
_BETA_FILTER = Y
_FIXED_ANTISLIT = 5.89
_ANALYZER_CODE = 0
; Received beam analyzer : None
_DATEMEASURED = "25-Jul-2022 18:44:16"
_WL_UNIT = A
_WL1 = 1.5406
_WL2 = 1.54439
_WL3 = 1.39222
_WLRATIO = 0.5
_ANODE = Cu
_V4_INF_CREATOR = XRDWizard
_V4_INF_CREATOR_VERSION = V2.9.0.22
_V4_INF_WIZARD_VERSION = V2.9.0.22
_V4_INF_WIZARD_ADDINS = V2.9.0.22
_V4_INF_WIZARD_DOCTYPE = XRD
_V4_INF_OSUSER = McQueenLab
_V4_INF_USER = Administrator
_V4_INF_SITE = USA
_V4_INF_SAMPLEID = ML_20220720_31_SJD_0_LaB6-1mi

; Data for range 1
_DRIVE = COUPLED
_STEPTIME = 4.23
_STEPSIZE = 0.0185756
_STEPMODE = C
_START = 5
_THETA = 2.5
_2THETA = 5
_KHI = 0
_PHI = 0
_X = 0
_Y = 0
_Z = 0
_DETECTOR = 5
; Detector type : Unknown
_DETECTORSLIT = unkn
_AUX1 = 0
_AUX2 = 0
_AUX3 = 0
_TIMESTARTED = 15
_TEMP_RATE = -1
_TEMP_DELAY = -1
_KV = 40
_MA = 40
_RANGE_WL = 1.5406
_3DPLANE = 0
_V4_ADDITIONALDETECTOR = 257
_V4_PSD2THETA = 3.3733
_V4_PSDCHANNEL1 = 0
_V4_PSDAPERTURE = 12.68
_V4_PSDTYPE = 5
_V4_PSDFIXED = 0
_V4_COUNTERS_MASK = 4096
_V4_DRIVES_MASK = 0
_V4_ENCODERS_MASK = 0
_2THETACOUNTS = 1
; 2THETA  PSD
   5.0000        112
   5.0186         98
   5.0372         99
   5.0557         99
   5.0743         95
   5.0929         96
   5.1115         75
   5.1300         91
   5.1486        119
   5.1672         81
   5.1858        106
   5.2043        108
   5.2229         88
   5.2415         87
   5.2601        102
   5.2786         83
   5.2972         82
   5.3158         83
   5.3344        100
   5.3529         93
   5.3715         81
   5.3901         78
   5.4087         96
   5.4272         86
   5.4458         90
   5.4644         86
   5.4830         93
   5.5015         75
   5.5201         78
   5.5387         94
   5.5573         98
   5.5758         84
   5.5944         79
   5.6130         87
   5.6316         93
   5.6501         67
   5.6687         63
   5.6873         77
   5.7059         69
   5.7244         78
   5.7430         61
   5.7616         92
   5.7802         74
   5.7988         69
   5.8173         82
   5.8359         65
   5.8545        102
   5.8731         72
   5.8916         67
   5.9102         59
   5.9288         65
   5.9474         77
   5.9659         72
   5.9845         85
   6.0031         72
   6.0217         78
   6.0402         71
   6.0588         71
   6.0774         69
   6.0960         54
   6.1145         65
   6.1331         72
   6.1517         67
   6.1703         86
   6.1888         64
   6.2074         69
   6.2260         69
   6.2446         60
   6.2631         72
   6.2817         72
   6.3003         56
   6.3189         65
   6.3374         63
   6.3560         77
   6.3746         62
   6.3932         68
   6.4117         63
   6.4303         77
   6.4489         71
   6.4675         85
   6.4860         75
   6.5046         69
   6.5232         48
   6.5418         64
   6.5604         67
   6.5789         74
   6.5975         70
   6.6161         62
   6.6347         67
   6.6532         68
   6.6718         60
   6.6904         77
   6.7090         50
   6.7275         58
   6.7461         62
   6.7647         59
   6.7833         59
   6.8018         68
   6.8204         68
   6.8390         53
   6.8576         70
   6.8761         54
   6.8947         66
   6.9133         55
   6.9319         58
   6.9504         61
   6.9690         59
   6.9876         49
   7.0062         57
   7.0247         68
   7.0433         54
   7.0619         50
   7.0805         65
   7.0990         61
   7.1176         66
   7.1362         66
   7.1548         56
   7.1733         62
   7.1919         61
   7.2105         49
   7.2291         62
   7.2476         61
   7.2662         64
   7.2848         67
   7.3034         52
   7.3220         67
   7.3405         52
   7.3591         55
   7.3777         57
   7.3963         46
   7.4148         50
   7.4334         63
   7.4520         62
   7.4706         65
   7.4891         59
   7.5077         63
   7.5263         70
   7.5449         61
   7.5634         65
   7.5820         66
   7.6006         51
   7.6192         67
   7.6377         72
   7.6563         66
   7.6749         56
   7.6935         71
   7.7120         63
   7.7306         66
   7.7492         54
   7.7678         69
   7.7863         57
   7.8049         70
   7.8235         82
   7.8421         69
   7.8606         56
   7.8792         66
   7.8978         74
   7.9164         64
   7.9349         51
   7.9535         77
   7.9721         64
   7.9907         68
   8.0092         72
   8.0278         64
   8.0464         71
   8.0650         77
   8.0835         76
   8.1021         80
   8.1207         62
   8.1393         78
   8.1579         91
   8.1764         72
   8.1950         78
   8.2136         69
   8.2322         59
   8.2507         65
   8.2693         80
   8.2879         75
   8.3065         87
   8.3250         76
   8.3436         63
   8.3622         79
   8.3808         74
   8.3993         76
   8.4179         79
   8.4365         66
   8.4551         84
   8.4736         72
   8.4922         62
   8.5108         73
   8.5294         91
   8.5479         61
   8.5665         77
   8.5851         87
   8.6037         77
   8.6222         77
   8.6408         68
   8.6594         76
   8.6780         70
   8.6965         58
   8.7151         87
   8.7337         64
   8.7523         72
   8.7708         85
   8.7894         82
   8.8080         79
   8.8266         76
   8.8451         74
   8.8637         81
   8.8823         69
   8.9009         75
   8.9195         85
   8.9380         63
   8.9566         80
   8.9752        102
   8.9938        113
   9.0123         76
   9.0309         75
   9.0495         82
   9.0681         80
   9.0866         77
   9.1052         82
   9.1238         76
   9.1424         74
   9.1609         85
   9.1795         74
   9.1981         81
   9.2167         86
   9.2352         80
   9.2538         77
   9.2724         94
   9.2910         80
   9.3095         74
   9.3281         72
   9.3467         69
   9.3653         87
   9.3838         72
   9.4024        103
   9.4210         85
   9.4396         76
   9.4581         74
   9.4767         88
   9.4953         73
   9.5139         78
   9.5324         85
   9.5510         87
   9.5696         94
   9.5882         76
   9.6067         72
   9.6253         73
   9.6439         94
   9.6625         75
   9.6811         78
   9.6996         83
   9.7182         81
   9.7368         84
   9.7554         88
   9.7739         77
   9.7925         86
   9.8111         90
   9.8297         78
   9.8482         87
   9.8668         87
   9.8854         92
   9.9040         93
   9.9225         95
   9.9411         82
   9.9597         85
   9.9783         87
   9.9968         74
  10.0154         86
  10.0340         86
  10.0526         97
  10.0711         80
  10.0897         93
  10.1083         84
  10.1269         79
  10.1454         85
  10.1640         86
  10.1826         82
  10.2012         73
  10.2197         87
  10.2383         95
  10.2569         91
  10.2755         78
  10.2940         97
  10.3126         70
  10.3312         97
  10.3498         81
  10.3683        101
  10.3869         86
  10.4055         99
  10.4241         90
  10.4427        113
  10.4612         76
  10.4798        117
  10.4984         81
  10.5170         93
  10.5355         96
  10.5541        101
  10.5727         86
  10.5913         74
  10.6098         90
  10.6284         88
  10.6470         76
  10.6656         88
  10.6841         85
  10.7027         70
  10.7213         80
  10.7399         96
  10.7584         77
  10.7770         79
  10.7956         79
  10.8142         95
  10.8327         86
  10.8513         86
  10.8699         99
  10.8885         87
  10.9070         92
  10.9256         85
  10.9442         96
  10.9628         94
  10.9813         83
  10.9999         73
  11.0185        103
  11.0371        114
  11.0556         79
  11.0742         92
  11.0928         95
  11.1114         85
  11.1299         84
  11.1485         82
  11.1671         90
  11.1857         84
  11.2043         90
  11.2228         85
  11.2414         96
  11.2600         92
  11.2786         82
  11.2971         81
  11.3157         91
  11.3343         62
  11.3529         81
  11.3714         98
  11.3900         86
  11.4086         97
  11.4272         92
  11.4457         91
  11.4643         99
  11.4829         86
  11.5015         79
  11.5200         83
  11.5386         98
  11.5572         84
  11.5758         95
  11.5943         93
  11.6129         70
  11.6315         82
  11.6501         82
  11.6686         89
  11.6872         82
  11.7058         94
  11.7244         91
  11.7429        100
  11.7615         81
  11.7801         91
  11.7987        102
  11.8172         88
  11.8358         81
  11.8544         79
  11.8730         98
  11.8915         88
  11.9101         84
  11.9287         95
  11.9473         92
  11.9659         98
  11.9844         77
  12.0030         70
  12.0216         80
  12.0402         87
  12.0587         67
  12.0773         84
  12.0959         75
  12.1145         79
  12.1330         95
  12.1516         69
  12.1702         81
  12.1888         77
  12.2073         79
  12.2259         75
  12.2445         72
  12.2631         87
  12.2816         89
  12.3002         68
  12.3188         80
  12.3374         65
  12.3559         74
  12.3745         73
  12.3931         93
  12.4117         92
  12.4302         88
  12.4488         82
  12.4674         80
  12.4860         68
  12.5045         81
  12.5231         75
  12.5417         71
  12.5603         76
  12.5788         75
  12.5974         84
  12.6160         79
  12.6346         80
  12.6531         74
  12.6717         91
  12.6903         85
  12.7089         85
  12.7274         86
  12.7460         85
  12.7646         78
  12.7832         92
  12.8018         74
  12.8203         81
  12.8389         67
  12.8575         83
  12.8761         70
  12.8946         78
  12.9132         77
  12.9318         77
  12.9504        100
  12.9689         66
  12.9875         64
  13.0061         81
  13.0247         72
  13.0432         92
  13.0618         80
  13.0804         73
  13.0990         70
  13.1175         79
  13.1361         82
  13.1547         71
  13.1733         64
  13.1918         68
  13.2104         87
  13.2290         67
  13.2476         86
  13.2661         67
  13.2847         84
  13.3033         64
  13.3219         79
  13.3404         86
  13.3590         65
  13.3776         73
  13.3962         71
  13.4147         90
  13.4333         75
  13.4519         64
  13.4705         78
  13.4890         71
  13.5076         61
  13.5262         56
  13.5448         79
  13.5634         67
  13.5819         75
  13.6005         64
  13.6191         80
  13.6377         73
  13.6562         73
  13.6748         61
  13.6934         61
  13.7120         76
  13.7305         74
  13.7491         66
  13.7677         84
  13.7863         80
  13.8048         83
  13.8234         64
  13.8420         60
  13.8606         62
  13.8791         57
  13.8977         55
  13.9163         77
  13.9349         64
  13.9534         70
  13.9720         62
  13.9906         64
  14.0092         87
  14.0277         58
  14.0463         75
  14.0649         52
  14.0835         68
  14.1020         62
  14.1206         68
  14.1392         47
  14.1578         70
  14.1763         71
  14.1949         59
  14.2135         67
  14.2321         65
  14.2506         86
  14.2692         54
  14.2878         51
  14.3064         68
  14.3250         72
  14.3435         63
  14.3621         68
  14.3807         76
  14.3993         64
  14.4178         69
  14.4364         47
  14.4550         55
  14.4736         58
  14.4921         76
  14.5107         55
  14.5293         66
  14.5479         62
  14.5664         71
  14.5850         69
  14.6036         55
  14.6222         56
  14.6407         48
  14.6593         52
  14.6779         62
  14.6965         61
  14.7150         58
  14.7336         62
  14.7522         60
  14.7708         67
  14.7893         69
  14.8079         70
  14.8265         71
  14.8451         58
  14.8636         56
  14.8822         77
  14.9008         78
  14.9194         66
  14.9379         67
  14.9565         57
  14.9751         65
  14.9937         60
  15.0122         69
  15.0308         53
  15.0494         62
  15.0680         63
  15.0866         56
  15.1051         61
  15.1237         47
  15.1423         59
  15.1609         67
  15.1794         66
  15.1980         65
  15.2166         62
  15.2352         58
  15.2537         60
  15.2723         64
  15.2909         62
  15.3095         68
  15.3280         55
  15.3466         72
  15.3652         60
  15.3838         52
  15.4023         64
  15.4209         62
  15.4395         48
  15.4581         65
  15.4766         73
  15.4952         58
  15.5138         62
  15.5324         69
  15.5509         46
  15.5695         73
  15.5881         52
  15.6067         58
  15.6252         68
  15.6438         47
  15.6624         65
  15.6810         58
  15.6995         57
  15.7181         76
  15.7367         58
  15.7553         50
  15.7738         52
  15.7924         57
  15.8110         65
  15.8296         69
  15.8482         55
  15.8667         67
  15.8853         71
  15.9039         59
  15.9225         48
  15.9410         67
  15.9596         57
  15.9782         77
  15.9968         68
  16.0153         69
  16.0339         73
  16.0525         53
  16.0711         48
  16.0896         58
  16.1082         63
  16.1268         62
  16.1454         59
  16.1639         33
  16.1825         52
  16.2011         59
  16.2197         56
  16.2382         61
  16.2568         67
  16.2754         64
  16.2940         76
  16.3125         54
  16.3311         59
  16.3497         60
  16.3683         55
  16.3868         56
  16.4054         61
  16.4240         53
  16.4426         56
  16.4611         54
  16.4797         51
  16.4983         66
  16.5169         62
  16.5354         61
  16.5540         71
  16.5726         60
  16.5912         55
  16.6097         72
  16.6283         67
  16.6469         61
  16.6655         56
  16.6841         69
  16.7026         61
  16.7212         56
  16.7398         59
  16.7584         79
  16.7769         50
  16.7955         63
  16.8141         54
  16.8327         56
  16.8512         56
  16.8698         52
  16.8884         71
  16.9070         52
  16.9255         61
  16.9441         47
  16.9627         66
  16.9813         55
  16.9998         55
  17.0184         45
  17.0370         54
  17.0556         54
  17.0741         63
  17.0927         56
  17.1113         53
  17.1299         58
  17.1484         61
  17.1670         66
  17.1856         65
  17.2042         62
  17.2227         57
  17.2413         63
  17.2599         42
  17.2785         51
  17.2970         52
  17.3156         59
  17.3342         57
  17.3528         64
  17.3713         52
  17.3899         61
  17.4085         65
  17.4271         45
  17.4457         50
  17.4642         82
  17.4828         74
  17.5014         56
  17.5200         70
  17.5385         45
  17.5571         65
  17.5757         65
  17.5943         45
  17.6128         69
  17.6314         62
  17.6500         47
  17.6686         65
  17.6871         53
  17.7057         62
  17.7243         46
  17.7429         56
  17.7614         51
  17.7800         62
  17.7986         60
  17.8172         50
  17.8357         67
  17.8543         62
  17.8729         43
  17.8915         65
  17.9100         63
  17.9286         64
  17.9472         62
  17.9658         62
  17.9843         66
  18.0029         64
  18.0215         66
  18.0401         63
  18.0586         47
  18.0772         66
  18.0958         64
  18.1144         44
  18.1329         59
  18.1515         54
  18.1701         70
  18.1887         76
  18.2073         49
  18.2258         60
  18.2444         46
  18.2630         69
  18.2816         63
  18.3001         56
  18.3187         76
  18.3373         54
  18.3559         78
  18.3744         61
  18.3930         58
  18.4116         64
  18.4302         59
  18.4487         60
  18.4673         56
  18.4859         52
  18.5045         66
  18.5230         64
  18.5416         52
  18.5602         67
  18.5788         54
  18.5973         57
  18.6159         72
  18.6345         67
  18.6531         67
  18.6716         79
  18.6902         56
  18.7088         54
  18.7274         58
  18.7459         65
  18.7645         69
  18.7831         69
  18.8017         69
  18.8202         55
  18.8388         70
  18.8574         61
  18.8760         64
  18.8945         56
  18.9131         61
  18.9317         61
  18.9503         50
  18.9689         53
  18.9874         69
  19.0060         59
  19.0246         55
  19.0432         59
  19.0617         75
  19.0803         73
  19.0989         77
  19.1175         66
  19.1360         50
  19.1546         65
  19.1732         56
  19.1918         56
  19.2103         58
  19.2289         78
  19.2475         55
  19.2661         73
  19.2846         74
  19.3032         60
  19.3218         57
  19.3404         61
  19.3589         59
  19.3775         63
  19.3961         66
  19.4147         58
  19.4332         67
  19.4518         67
  19.4704         56
  19.4890         64
  19.5075         64
  19.5261         68
  19.5447         70
  19.5633         60
  19.5818         59
  19.6004         73
  19.6190         65
  19.6376         62
  19.6561         63
  19.6747         60
  19.6933         50
  19.7119         68
  19.7305         64
  19.7490         67
  19.7676         62
  19.7862         66
  19.8048         74
  19.8233         67
  19.8419         70
  19.8605         56
  19.8791         72
  19.8976         71
  19.9162         62
  19.9348         52
  19.9534         92
  19.9719         80
  19.9905         54
  20.0091         59
  20.0277         68
  20.0462         53
  20.0648         63
  20.0834         62
  20.1020         51
  20.1205         81
  20.1391         62
  20.1577         60
  20.1763         71
  20.1948         69
  20.2134         69
  20.2320         61
  20.2506         61
  20.2691         57
  20.2877         60
  20.3063         59
  20.3249         73
  20.3434         56
  20.3620         83
  20.3806         69
  20.3992         63
  20.4177         67
  20.4363         47
  20.4549         73
  20.4735         69
  20.4921         75
  20.5106         64
  20.5292         65
  20.5478         83
  20.5664         70
  20.5849         77
  20.6035         78
  20.6221         70
  20.6407         60
  20.6592         72
  20.6778         71
  20.6964         83
  20.7150         71
  20.7335         65
  20.7521         70
  20.7707         62
  20.7893         62
  20.8078         71
  20.8264         70
  20.8450         59
  20.8636         67
  20.8821         49
  20.9007         74
  20.9193         74
  20.9379         59
  20.9564         68
  20.9750         72
  20.9936         94
  21.0122         65
  21.0307         68
  21.0493         84
  21.0679         75
  21.0865         92
  21.1050         64
  21.1236         71
  21.1422         89
  21.1608         95
  21.1793        106
  21.1979        120
  21.2165        145
  21.2351        142
  21.2537        128
  21.2722        110
  21.2908        120
  21.3094        122
  21.3280        131
  21.3465        174
  21.3651        202
  21.3837        127
  21.4023        126
  21.4208        129
  21.4394         91
  21.4580         77
  21.4766         99
  21.4951         85
  21.5137         75
  21.5323         77
  21.5509         84
  21.5694         74
  21.5880         86
  21.6066         68
  21.6252         83
  21.6437         71
  21.6623         77
  21.6809         70
  21.6995         67
  21.7180         87
  21.7366         61
  21.7552         76
  21.7738         66
  21.7923         64
  21.8109         68
  21.8295         73
  21.8481         57
  21.8666         79
  21.8852         77
  21.9038         63
  21.9224         65
  21.9409         67
  21.9595         67
  21.9781         68
  21.9967         73
  22.0152         76
  22.0338         71
  22.0524         86
  22.0710         75
  22.0896         61
  22.1081         81
  22.1267         65
  22.1453         79
  22.1639         65
  22.1824         75
  22.2010         69
  22.2196         69
  22.2382         60
  22.2567         74
  22.2753         83
  22.2939         83
  22.3125         68
  22.3310         75
  22.3496         69
  22.3682         77
  22.3868         81
  22.4053         84
  22.4239         86
  22.4425         75
  22.4611         67
  22.4796         79
  22.4982         87
  22.5168         82
  22.5354         78
  22.5539         74
  22.5725         75
  22.5911         91
  22.6097         66
  22.6282         87
  22.6468         69
  22.6654         71
  22.6840         95
  22.7025         64
  22.7211         74
  22.7397         65
  22.7583         65
  22.7768         75
  22.7954         69
  22.8140         82
  22.8326         73
  22.8512         68
  22.8697         78
  22.8883         71
  22.9069         74
  22.9255         71
  22.9440         74
  22.9626         73
  22.9812         78
  22.9998         71
  23.0183         91
  23.0369         75
  23.0555         82
  23.0741         58
  23.0926         71
  23.1112         58
  23.1298         75
  23.1484         61
  23.1669         99
  23.1855         80
  23.2041         84
  23.2227         82
  23.2412         73
  23.2598         70
  23.2784         70
  23.2970         78
  23.3155         81
  23.3341         70
  23.3527         79
  23.3713         84
  23.3898         63
  23.4084         88
  23.4270         72
  23.4456         72
  23.4641         72
  23.4827         67
  23.5013         57
  23.5199         69
  23.5384         70
  23.5570         80
  23.5756         65
  23.5942         72
  23.6128         75
  23.6313         75
  23.6499         75
  23.6685         85
  23.6871         90
  23.7056         76
  23.7242         78
  23.7428         72
  23.7614         68
  23.7799         82
  23.7985         84
  23.8171         79
  23.8357         69
  23.8542         63
  23.8728         78
  23.8914         73
  23.9100         57
  23.9285         57
  23.9471         78
  23.9657         84
  23.9843         88
  24.0028         82
  24.0214         76
  24.0400         75
  24.0586         74
  24.0771         54
  24.0957         67
  24.1143         74
  24.1329         77
  24.1514         85
  24.1700         82
  24.1886         74
  24.2072         80
  24.2257         63
  24.2443         73
  24.2629         61
  24.2815         87
  24.3000         95
  24.3186         87
  24.3372         77
  24.3558         70
  24.3744         71
  24.3929         70
  24.4115         84
  24.4301         74
  24.4487         64
  24.4672         94
  24.4858         68
  24.5044         84
  24.5230         70
  24.5415         67
  24.5601         67
  24.5787         72
  24.5973         82
  24.6158         72
  24.6344         55
  24.6530         87
  24.6716         73
  24.6901         68
  24.7087         66
  24.7273         80
  24.7459         58
  24.7644         94
  24.7830         91
  24.8016         80
  24.8202         78
  24.8387         74
  24.8573         79
  24.8759         73
  24.8945         85
  24.9130         65
  24.9316         72
  24.9502         59
  24.9688         69
  24.9873         75
  25.0059         86
  25.0245         67
  25.0431         69
  25.0616         51
  25.0802         78
  25.0988         66
  25.1174         76
  25.1360         77
  25.1545         78
  25.1731         72
  25.1917         71
  25.2103         74
  25.2288         77
  25.2474         73
  25.2660         84
  25.2846         70
  25.3031         66
  25.3217         80
  25.3403         68
  25.3589         84
  25.3774         73
  25.3960         82
  25.4146         73
  25.4332         67
  25.4517         63
  25.4703         55
  25.4889         87
  25.5075        103
  25.5260         69
  25.5446         88
  25.5632         75
  25.5818         75
  25.6003         75
  25.6189         73
  25.6375         71
  25.6561         72
  25.6746         92
  25.6932         63
  25.7118         68
  25.7304        101
  25.7489         67
  25.7675         71
  25.7861         68
  25.8047         71
  25.8232         82
  25.8418         87
  25.8604         67
  25.8790         71
  25.8976         61
  25.9161         74
  25.9347         69
  25.9533         74
  25.9719         74
  25.9904         82
  26.0090         74
  26.0276         54
  26.0462         75
  26.0647         68
  26.0833         69
  26.1019         84
  26.1205         70
  26.1390         71
  26.1576         74
  26.1762         64
  26.1948         68
  26.2133         52
  26.2319         93
  26.2505         67
  26.2691         64
  26.2876         50
  26.3062         70
  26.3248         75
  26.3434         64
  26.3619         81
  26.3805         69
  26.3991         75
  26.4177         61
  26.4362         78
  26.4548         79
  26.4734         68
  26.4920         76
  26.5105         76
  26.5291         62
  26.5477         67
  26.5663         68
  26.5848         48
  26.6034         83
  26.6220         62
  26.6406         64
  26.6591         65
  26.6777         66
  26.6963         75
  26.7149         66
  26.7335         70
  26.7520         67
  26.7706         74
  26.7892         59
  26.8078         65
  26.8263         77
  26.8449         64
  26.8635         70
  26.8821         67
  26.9006         58
  26.9192         92
  26.9378         64
  26.9564         55
  26.9749         65
  26.9935         74
  27.0121         58
  27.0307         75
  27.0492         77
  27.0678         74
  27.0864         68
  27.1050         59
  27.1235         68
  27.1421         81
  27.1607         91
  27.1793         78
  27.1978         98
  27.2164         96
  27.2350        100
  27.2536         89
  27.2721         74
  27.2907         75
  27.3093         74
  27.3279         88
  27.3464         71
  27.3650         79
  27.3836         68
  27.4022         73
  27.4207         63
  27.4393         62
  27.4579         60
  27.4765         65
  27.4951         79
  27.5136         85
  27.5322         60
  27.5508         81
  27.5694         61
  27.5879         79
  27.6065         60
  27.6251         62
  27.6437         58
  27.6622         66
  27.6808         63
  27.6994         58
  27.7180         68
  27.7365         71
  27.7551         57
  27.7737         64
  27.7923         78
  27.8108         69
  27.8294         55
  27.8480         65
  27.8666         65
  27.8851         68
  27.9037         67
  27.9223         63
  27.9409         65
  27.9594         61
  27.9780         70
  27.9966         65
  28.0152         73
  28.0337         63
  28.0523         61
  28.0709         70
  28.0895         50
  28.1080         77
  28.1266         67
  28.1452         59
  28.1638         65
  28.1823         65
  28.2009         64
  28.2195         68
  28.2381         64
  28.2567         60
  28.2752         52
  28.2938         57
  28.3124         62
  28.3310         62
  28.3495         63
  28.3681         72
  28.3867         64
  28.4053         65
  28.4238         56
  28.4424         60
  28.4610         54
  28.4796         71
  28.4981         73
  28.5167         43
  28.5353         57
  28.5539         50
  28.5724         66
  28.5910         72
  28.6096         59
  28.6282         61
  28.6467         60
  28.6653         59
  28.6839         59
  28.7025         73
  28.7210         47
  28.7396         58
  28.7582         54
  28.7768         51
  28.7953         53
  28.8139         56
  28.8325         58
  28.8511         66
  28.8696         61
  28.8882         73
  28.9068         55
  28.9254         69
  28.9439         75
  28.9625         71
  28.9811         72
  28.9997         56
  29.0183         69
  29.0368         71
  29.0554         51
  29.0740         59
  29.0926         67
  29.1111         53
  29.1297         72
  29.1483         56
  29.1669         71
  29.1854         52
  29.2040         54
  29.2226         57
  29.2412         66
  29.2597         48
  29.2783         63
  29.2969         66
  29.3155         62
  29.3340         58
  29.3526         60
  29.3712         53
  29.3898         70
  29.4083         55
  29.4269         63
  29.4455         66
  29.4641         56
  29.4826         56
  29.5012         71
  29.5198         72
  29.5384         58
  29.5569         62
  29.5755         62
  29.5941         60
  29.6127         59
  29.6312         63
  29.6498         58
  29.6684         79
  29.6870         51
  29.7055         59
  29.7241         52
  29.7427         59
  29.7613         66
  29.7799         62
  29.7984         68
  29.8170         54
  29.8356         58
  29.8542         50
  29.8727         57
  29.8913         52
  29.9099         62
  29.9285         47
  29.9470         63
  29.9656         65
  29.9842         56
  30.0028         72
  30.0213         66
  30.0399         58
  30.0585         56
  30.0771         46
  30.0956         56
  30.1142         63
  30.1328         58
  30.1514         46
  30.1699         50
  30.1885         64
  30.2071         58
  30.2257         60
  30.2442         80
  30.2628         72
  30.2814         52
  30.3000         63
  30.3185         59
  30.3371         74
  30.3557        103
  30.3743        110
  30.3928        101
  30.4114        113
  30.4300         78
  30.4486         87
  30.4671         98
  30.4857         79
  30.5043         67
  30.5229         57
  30.5415         70
  30.5600         67
  30.5786         66
  30.5972         55
  30.6158         62
  30.6343         62
  30.6529         46
  30.6715         60
  30.6901         54
  30.7086         52
  30.7272         51
  30.7458         46
  30.7644         39
  30.7829         51
  30.8015         47
  30.8201         58
  30.8387         45
  30.8572         52
  30.8758         49
  30.8944         49
  30.9130         49
  30.9315         57
  30.9501         53
  30.9687         52
  30.9873         55
  31.0058         50
  31.0244         53
  31.0430         57
  31.0616         58
  31.0801         61
  31.0987         47
  31.1173         49
  31.1359         38
  31.1544         48
  31.1730         60
  31.1916         65
  31.2102         53
  31.2287         57
  31.2473         68
  31.2659         55
  31.2845         47
  31.3030         58
  31.3216         57
  31.3402         61
  31.3588         46
  31.3774         49
  31.3959         61
  31.4145         49
  31.4331         53
  31.4517         48
  31.4702         43
  31.4888         44
  31.5074         46
  31.5260         43
  31.5445         54
  31.5631         58
  31.5817         43
  31.6003         53
  31.6188         59
  31.6374         47
  31.6560         49
  31.6746         50
  31.6931         48
  31.7117         45
  31.7303         44
  31.7489         58
  31.7674         40
  31.7860         50
  31.8046         47
  31.8232         50
  31.8417         33
  31.8603         57
  31.8789         52
  31.8975         52
  31.9160         55
  31.9346         54
  31.9532         29
  31.9718         44
  31.9903         47
  32.0089         53
  32.0275         60
  32.0461         51
  32.0646         52
  32.0832         44
  32.1018         57
  32.1204         47
  32.1390         50
  32.1575         42
  32.1761         52
  32.1947         58
  32.2133         46
  32.2318         41
  32.2504         52
  32.2690         45
  32.2876         47
  32.3061         51
  32.3247         54
  32.3433         51
  32.3619         44
  32.3804         56
  32.3990         55
  32.4176         56
  32.4362         52
  32.4547         61
  32.4733         63
  32.4919         61
  32.5105         44
  32.5290         62
  32.5476         44
  32.5662         54
  32.5848         45
  32.6033         45
  32.6219         55
  32.6405         41
  32.6591         44
  32.6776         41
  32.6962         46
  32.7148         48
  32.7334         38
  32.7519         44
  32.7705         48
  32.7891         39
  32.8077         38
  32.8262         48
  32.8448         48
  32.8634         37
  32.8820         48
  32.9006         47
  32.9191         51
  32.9377         44
  32.9563         42
  32.9749         56
  32.9934         53
  33.0120         53
  33.0306         55
  33.0492         40
  33.0677         48
  33.0863         49
  33.1049         47
  33.1235         57
  33.1420         42
  33.1606         53
  33.1792         31
  33.1978         49
  33.2163         44
  33.2349         50
  33.2535         37
  33.2721         39
  33.2906         44
  33.3092         45
  33.3278         44
  33.3464         48
  33.3649         50
  33.3835         64
  33.4021         47
  33.4207         58
  33.4392         57
  33.4578         40
  33.4764         59
  33.4950         52
  33.5135         38
  33.5321         39
  33.5507         43
  33.5693         39
  33.5878         51
  33.6064         38
  33.6250         46
  33.6436         44
  33.6622         44
  33.6807         42
  33.6993         45
  33.7179         42
  33.7365         45
  33.7550         45
  33.7736         56
  33.7922         42
  33.8108         41
  33.8293         52
  33.8479         54
  33.8665         41
  33.8851         40
  33.9036         36
  33.9222         38
  33.9408         47
  33.9594         45
  33.9779         37
  33.9965         41
  34.0151         33
  34.0337         47
  34.0522         34
  34.0708         44
  34.0894         42
  34.1080         58
  34.1265         53
  34.1451         43
  34.1637         39
  34.1823         36
  34.2008         39
  34.2194         46
  34.2380         40
  34.2566         37
  34.2751         40
  34.2937         42
  34.3123         33
  34.3309         42
  34.3494         32
  34.3680         46
  34.3866         47
  34.4052         41
  34.4238         33
  34.4423         39
  34.4609         38
  34.4795         49
  34.4981         42
  34.5166         42
  34.5352         38
  34.5538         42
  34.5724         59
  34.5909         42
  34.6095         58
  34.6281         56
  34.6467         57
  34.6652         51
  34.6838         47
  34.7024         57
  34.7210         43
  34.7395         59
  34.7581         68
  34.7767         72
  34.7953         45
  34.8138         43
  34.8324         47
  34.8510         49
  34.8696         45
  34.8881         47
  34.9067         49
  34.9253         57
  34.9439         45
  34.9624         48
  34.9810         29
  34.9996         30
  35.0182         40
  35.0367         33
  35.0553         40
  35.0739         43
  35.0925         40
  35.1110         42
  35.1296         40
  35.1482         42
  35.1668         30
  35.1854         45
  35.2039         43
  35.2225         32
  35.2411         30
  35.2597         50
  35.2782         33
  35.2968         39
  35.3154         37
  35.3340         33
  35.3525         50
  35.3711         28
  35.3897         42
  35.4083         38
  35.4268         39
  35.4454         42
  35.4640         44
  35.4826         35
  35.5011         44
  35.5197         33
  35.5383         42
  35.5569         33
  35.5754         40
  35.5940         33
  35.6126         42
  35.6312         46
  35.6497         28
  35.6683         36
  35.6869         36
  35.7055         45
  35.7240         38
  35.7426         34
  35.7612         33
  35.7798         42
  35.7983         46
  35.8169         39
  35.8355         35
  35.8541         31
  35.8726         36
  35.8912         46
  35.9098         43
  35.9284         45
  35.9469         42
  35.9655         33
  35.9841         37
  36.0027         40
  36.0213         33
  36.0398         41
  36.0584         36
  36.0770         41
  36.0956         32
  36.1141         35
  36.1327         45
  36.1513         42
  36.1699         38
  36.1884         36
  36.2070         37
  36.2256         45
  36.2442         32
  36.2627         28
  36.2813         28
  36.2999         30
  36.3185         34
  36.3370         29
  36.3556         25
  36.3742         30
  36.3928         33
  36.4113         33
  36.4299         32
  36.4485         48
  36.4671         24
  36.4856         40
  36.5042         37
  36.5228         41
  36.5414         38
  36.5599         36
  36.5785         35
  36.5971         38
  36.6157         24
  36.6342         34
  36.6528         37
  36.6714         35
  36.6900         36
  36.7085         29
  36.7271         28
  36.7457         38
  36.7643         42
  36.7829         31
  36.8014         36
  36.8200         31
  36.8386         29
  36.8572         38
  36.8757         32
  36.8943         25
  36.9129         36
  36.9315         36
  36.9500         35
  36.9686         31
  36.9872         40
  37.0058         29
  37.0243         29
  37.0429         37
  37.0615         34
  37.0801         38
  37.0986         34
  37.1172         30
  37.1358         37
  37.1544         38
  37.1729         39
  37.1915         27
  37.2101         41
  37.2287         39
  37.2472         33
  37.2658         30
  37.2844         32
  37.3030         33
  37.3215         36
  37.3401         37
  37.3587         40
  37.3773         43
  37.3958         35
  37.4144         48
  37.4330         53
  37.4516         74
  37.4701         54
  37.4887         48
  37.5073         45
  37.5259         36
  37.5445         41
  37.5630         36
  37.5816         31
  37.6002         39
  37.6188         33
  37.6373         30
  37.6559         23
  37.6745         37
  37.6931         31
  37.7116         24
  37.7302         46
  37.7488         37
  37.7674         43
  37.7859         25
  37.8045         38
  37.8231         40
  37.8417         37
  37.8602         38
  37.8788         30
  37.8974         36
  37.9160         30
  37.9345         36
  37.9531         26
  37.9717         30
  37.9903         27
  38.0088         29
  38.0274         29
  38.0460         27
  38.0646         43
  38.0831         35
  38.1017         34
  38.1203         24
  38.1389         25
  38.1574         24
  38.1760         27
  38.1946         36
  38.2132         38
  38.2317         27
  38.2503         24
  38.2689         34
  38.2875         29
  38.3061         31
  38.3246         32
  38.3432         27
  38.3618         34
  38.3804         30
  38.3989         38
  38.4175         33
  38.4361         29
  38.4547         40
  38.4732         27
  38.4918         21
  38.5104         32
  38.5290         32
  38.5475         28
  38.5661         24
  38.5847         27
  38.6033         24
  38.6218         30
  38.6404         30
  38.6590         24
  38.6776         28
  38.6961         29
  38.7147         36
  38.7333         30
  38.7519         39
  38.7704         27
  38.7890         30
  38.8076         34
  38.8262         24
  38.8447         27
  38.8633         21
  38.8819         29
  38.9005         28
  38.9190         31
  38.9376         37
  38.9562         34
  38.9748         20
  38.9933         35
  39.0119         29
  39.0305         39
  39.0491         37
  39.0677         26
  39.0862         26
  39.1048         38
  39.1234         29
  39.1420         24
  39.1605         32
  39.1791         38
  39.1977         27
  39.2163         40
  39.2348         41
  39.2534         28
  39.2720         26
  39.2906         35
  39.3091         28
  39.3277         30
  39.3463         23
  39.3649         26
  39.3834         32
  39.4020         24
  39.4206         28
  39.4392         31
  39.4577         25
  39.4763         23
  39.4949         25
  39.5135         27
  39.5320         23
  39.5506         29
  39.5692         36
  39.5878         28
  39.6063         34
  39.6249         36
  39.6435         27
  39.6621         21
  39.6806         25
  39.6992         34
  39.7178         29
  39.7364         33
  39.7549         27
  39.7735         28
  39.7921         29
  39.8107         29
  39.8293         23
  39.8478         25
  39.8664         27
  39.8850         30
  39.9036         30
  39.9221         24
  39.9407         29
  39.9593         30
  39.9779         41
  39.9964         34
  40.0150         20
  40.0336         26
  40.0522         37
  40.0707         22
  40.0893         36
  40.1079         36
  40.1265         25
  40.1450         25
  40.1636         36
  40.1822         28
  40.2008         31
  40.2193         19
  40.2379         30
  40.2565         23
  40.2751         32
  40.2936         27
  40.3122         23
  40.3308         32
  40.3494         26
  40.3679         35
  40.3865         25
  40.4051         24
  40.4237         23
  40.4422         26
  40.4608         27
  40.4794         16
  40.4980         29
  40.5165         30
  40.5351         31
  40.5537         30
  40.5723         33
  40.5908         28
  40.6094         29
  40.6280         35
  40.6466         38
  40.6652         27
  40.6837         33
  40.7023         29
  40.7209         23
  40.7395         38
  40.7580         30
  40.7766         30
  40.7952         25
  40.8138         31
  40.8323         21
  40.8509         27
  40.8695         25
  40.8881         29
  40.9066         40
  40.9252         26
  40.9438         41
  40.9624         27
  40.9809         26
  40.9995         29
  41.0181         26
  41.0367         35
  41.0552         43
  41.0738         35
  41.0924         26
  41.1110         29
  41.1295         33
  41.1481         29
  41.1667         34
  41.1853         30
  41.2038         20
  41.2224         31
  41.2410         28
  41.2596         36
  41.2781         24
  41.2967         26
  41.3153         29
  41.3339         42
  41.3524         25
  41.3710         25
  41.3896         24
  41.4082         27
  41.4268         32
  41.4453         28
  41.4639         23
  41.4825         41
  41.5011         40
  41.5196         30
  41.5382         29
  41.5568         35
  41.5754         33
  41.5939         23
  41.6125         29
  41.6311         32
  41.6497         25
  41.6682         36
  41.6868         34
  41.7054         19
  41.7240         31
  41.7425         33
  41.7611         28
  41.7797         28
  41.7983         21
  41.8168         25
  41.8354         25
  41.8540         22
  41.8726         25
  41.8911         36
  41.9097         29
  41.9283         32
  41.9469         27
  41.9654         39
  41.9840         22
  42.0026         34
  42.0212         29
  42.0397         32
  42.0583         31
  42.0769         26
  42.0955         27
  42.1140         24
  42.1326         35
  42.1512         35
  42.1698         23
  42.1884         28
  42.2069         30
  42.2255         29
  42.2441         33
  42.2627         31
  42.2812         28
  42.2998         26
  42.3184         17
  42.3370         25
  42.3555         23
  42.3741         22
  42.3927         31
  42.4113         28
  42.4298         27
  42.4484         29
  42.4670         27
  42.4856         27
  42.5041         33
  42.5227         29
  42.5413         26
  42.5599         31
  42.5784         36
  42.5970         31
  42.6156         20
  42.6342         29
  42.6527         30
  42.6713         26
  42.6899         31
  42.7085         37
  42.7270         46
  42.7456         37
  42.7642         23
  42.7828         24
  42.8013         34
  42.8199         29
  42.8385         16
  42.8571         28
  42.8756         27
  42.8942         36
  42.9128         32
  42.9314         23
  42.9500         31
  42.9685         30
  42.9871         24
  43.0057         26
  43.0243         27
  43.0428         30
  43.0614         25
  43.0800         25
  43.0986         26
  43.1171         26
  43.1357         43
  43.1543         26
  43.1729         20
  43.1914         38
  43.2100         27
  43.2286         27
  43.2472         31
  43.2657         23
  43.2843         32
  43.3029         32
  43.3215         32
  43.3400         34
  43.3586         32
  43.3772         28
  43.3958         26
  43.4143         32
  43.4329         26
  43.4515         39
  43.4701         36
  43.4886         49
  43.5072         55
  43.5258         55
  43.5444         34
  43.5629         33
  43.5815         19
  43.6001         39
  43.6187         33
  43.6372         42
  43.6558         26
  43.6744         40
  43.6930         29
  43.7116         22
  43.7301         33
  43.7487         30
  43.7673         18
  43.7859         20
  43.8044         29
  43.8230         22
  43.8416         30
  43.8602         26
  43.8787         20
  43.8973         25
  43.9159         11
  43.9345         28
  43.9530         29
  43.9716         19
  43.9902         27
  44.0088         19
  44.0273         27
  44.0459         21
  44.0645         23
  44.0831         24
  44.1016         25
  44.1202         27
  44.1388         22
  44.1574         35
  44.1759         25
  44.1945         26
  44.2131         31
  44.2317         21
  44.2502         38
  44.2688         28
  44.2874         35
  44.3060         20
  44.3245         26
  44.3431         23
  44.3617         29
  44.3803         24
  44.3988         34
  44.4174         30
  44.4360         29
  44.4546         29
  44.4732         28
  44.4917         32
  44.5103         29
  44.5289         21
  44.5475         30
  44.5660         24
  44.5846         32
  44.6032         24
  44.6218         30
  44.6403         26
  44.6589         30
  44.6775         29
  44.6961         27
  44.7146         22
  44.7332         30
  44.7518         23
  44.7704         19
  44.7889         23
  44.8075         30
  44.8261         34
  44.8447         25
  44.8632         27
  44.8818         26
  44.9004         30
  44.9190         22
  44.9375         33
  44.9561         27
  44.9747         29
  44.9933         29
  45.0118         34
  45.0304         36
  45.0490         33
  45.0676         38
  45.0861         22
  45.1047         31
  45.1233         22
  45.1419         23
  45.1604         36
  45.1790         27
  45.1976         24
  45.2162         22
  45.2347         24
  45.2533         15
  45.2719         25
  45.2905         27
  45.3091         15
  45.3276         23
  45.3462         19
  45.3648         30
  45.3834         31
  45.4019         26
  45.4205         17
  45.4391         30
  45.4577         23
  45.4762         19
  45.4948         25
  45.5134         32
  45.5320         32
  45.5505         22
  45.5691         28
  45.5877         26
  45.6063         30
  45.6248         18
  45.6434         25
  45.6620         22
  45.6806         29
  45.6991         22
  45.7177         20
  45.7363         25
  45.7549         20
  45.7734         18
  45.7920         31
  45.8106         11
  45.8292         30
  45.8477         32
  45.8663         22
  45.8849         25
  45.9035         18
  45.9220         26
  45.9406         34
  45.9592         29
  45.9778         29
  45.9963         33
  46.0149         26
  46.0335         32
  46.0521         30
  46.0707         35
  46.0892         19
  46.1078         39
  46.1264         32
  46.1450         24
  46.1635         17
  46.1821         24
  46.2007         32
  46.2193         26
  46.2378         21
  46.2564         28
  46.2750         32
  46.2936         31
  46.3121         32
  46.3307         27
  46.3493         25
  46.3679         21
  46.3864         25
  46.4050         20
  46.4236         28
  46.4422         29
  46.4607         27
  46.4793         25
  46.4979         24
  46.5165         21
  46.5350         29
  46.5536         24
  46.5722         27
  46.5908         25
  46.6093         12
  46.6279         25
  46.6465         33
  46.6651         26
  46.6836         19
  46.7022         26
  46.7208         23
  46.7394         32
  46.7579         24
  46.7765         28
  46.7951         23
  46.8137         21
  46.8323         26
  46.8508         22
  46.8694         20
  46.8880         36
  46.9066         24
  46.9251         28
  46.9437         31
  46.9623         22
  46.9809         26
  46.9994         17
  47.0180         30
  47.0366         21
  47.0552         25
  47.0737         18
  47.0923         21
  47.1109         26
  47.1295         19
  47.1480         27
  47.1666         20
  47.1852         23
  47.2038         31
  47.2223         24
  47.2409         37
  47.2595         25
  47.2781         19
  47.2966         19
  47.3152         26
  47.3338         28
  47.3524         27
  47.3709         17
  47.3895         17
  47.4081         24
  47.4267         24
  47.4452         18
  47.4638         28
  47.4824         23
  47.5010         25
  47.5195         22
  47.5381         20
  47.5567         26
  47.5753         24
  47.5939         34
  47.6124         20
  47.6310         23
  47.6496         14
  47.6682         27
  47.6867         19
  47.7053         17
  47.7239         17
  47.7425         27
  47.7610         27
  47.7796         24
  47.7982         30
  47.8168         26
  47.8353         24
  47.8539         25
  47.8725         19
  47.8911         21
  47.9096         24
  47.9282         24
  47.9468         17
  47.9654         17
  47.9839         24
  48.0025         22
  48.0211         28
  48.0397         25
  48.0582         20
  48.0768         22
  48.0954         28
  48.1140         23
  48.1325         19
  48.1511         30
  48.1697         31
  48.1883         15
  48.2068         26
  48.2254         25
  48.2440         21
  48.2626         31
  48.2811         30
  48.2997         22
  48.3183         24
  48.3369         23
  48.3555         15
  48.3740         23
  48.3926         19
  48.4112         27
  48.4298         28
  48.4483         23
  48.4669         27
  48.4855         21
  48.5041         22
  48.5226         20
  48.5412         25
  48.5598         19
  48.5784         27
  48.5969         23
  48.6155         20
  48.6341         25
  48.6527         23
  48.6712         21
  48.6898         26
  48.7084         23
  48.7270         28
  48.7455         29
  48.7641         27
  48.7827         27
  48.8013         24
  48.8198         28
  48.8384         26
  48.8570         21
  48.8756         29
  48.8941         34
  48.9127         21
  48.9313         34
  48.9499         41
  48.9684         36
  48.9870         41
  49.0056         36
  49.0242         21
  49.0427         35
  49.0613         25
  49.0799         30
  49.0985         46
  49.1171         21
  49.1356         19
  49.1542         26
  49.1728         28
  49.1914         35
  49.2099         25
  49.2285         27
  49.2471         33
  49.2657         27
  49.2842         19
  49.3028         21
  49.3214         21
  49.3400         37
  49.3585         18
  49.3771         21
  49.3957         23
  49.4143         15
  49.4328         21
  49.4514         12
  49.4700         28
  49.4886         18
  49.5071         24
  49.5257         32
  49.5443         16
  49.5629         26
  49.5814         26
  49.6000         18
  49.6186         33
  49.6372         28
  49.6557         18
  49.6743         16
  49.6929         19
  49.7115         16
  49.7300         22
  49.7486         23
  49.7672         24
  49.7858         22
  49.8043         18
  49.8229         18
  49.8415         16
  49.8601         20
  49.8786         12
  49.8972         33
  49.9158         26
  49.9344         19
  49.9530         19
  49.9715         19
  49.9901         18
  50.0087         18
  50.0273         23
  50.0458         28
  50.0644         24
  50.0830         22
  50.1016         20
  50.1201         24
  50.1387         25
  50.1573         19
  50.1759         30
  50.1944         23
  50.2130         19
  50.2316         24
  50.2502         16
  50.2687         19
  50.2873         28
  50.3059         20
  50.3245         24
  50.3430         22
  50.3616         26
  50.3802         30
  50.3988         26
  50.4173         23
  50.4359         22
  50.4545         31
  50.4731         35
  50.4916         19
  50.5102         21
  50.5288         30
  50.5474         19
  50.5659         22
  50.5845         17
  50.6031         27
  50.6217         14
  50.6402         25
  50.6588         23
  50.6774         19
  50.6960         15
  50.7146         28
  50.7331         19
  50.7517         14
  50.7703         35
  50.7889         26
  50.8074         24
  50.8260         23
  50.8446         26
  50.8632         25
  50.8817         25
  50.9003         26
  50.9189         30
  50.9375         24
  50.9560         27
  50.9746         24
  50.9932         17
  51.0118         22
  51.0303         18
  51.0489         15
  51.0675         24
  51.0861         18
  51.1046         22
  51.1232         24
  51.1418         25
  51.1604         23
  51.1789         17
  51.1975         28
  51.2161         27
  51.2347         24
  51.2532         22
  51.2718         31
  51.2904         27
  51.3090         22
  51.3275         26
  51.3461         30
  51.3647         30
  51.3833         28
  51.4018         28
  51.4204         27
  51.4390         29
  51.4576         21
  51.4762         20
  51.4947         19
  51.5133         20
  51.5319         23
  51.5505         32
  51.5690         17
  51.5876         18
  51.6062         22
  51.6248         14
  51.6433         23
  51.6619         23
  51.6805         20
  51.6991         25
  51.7176         23
  51.7362         29
  51.7548         25
  51.7734         29
  51.7919         26
  51.8105         35
  51.8291         25
  51.8477         15
  51.8662         12
  51.8848         24
  51.9034         17
  51.9220         17
  51.9405         27
  51.9591         32
  51.9777         24
  51.9963         30
  52.0148         25
  52.0334         13
  52.0520         20
  52.0706         35
  52.0891         16
  52.1077         22
  52.1263         16
  52.1449         15
  52.1634         20
  52.1820         18
  52.2006         25
  52.2192         21
  52.2378         18
  52.2563         27
  52.2749         27
  52.2935         20
  52.3121         12
  52.3306         18
  52.3492         22
  52.3678         21
  52.3864         27
  52.4049         25
  52.4235         19
  52.4421         27
  52.4607         25
  52.4792         23
  52.4978         24
  52.5164         17
  52.5350         14
  52.5535         28
  52.5721         23
  52.5907         17
  52.6093         24
  52.6278         16
  52.6464         22
  52.6650         16
  52.6836         26
  52.7021         21
  52.7207         16
  52.7393         21
  52.7579         21
  52.7764         23
  52.7950         17
  52.8136         16
  52.8322         16
  52.8507         21
  52.8693         32
  52.8879         28
  52.9065         15
  52.9250         23
  52.9436         23
  52.9622         24
  52.9808         19
  52.9994         25
  53.0179         26
  53.0365         20
  53.0551         27
  53.0737         26
  53.0922         24
  53.1108         23
  53.1294         26
  53.1480         24
  53.1665         27
  53.1851         15
  53.2037         12
  53.2223         18
  53.2408         20
  53.2594         11
  53.2780         33
  53.2966         22
  53.3151         27
  53.3337         14
  53.3523         14
  53.3709         21
  53.3894         31
  53.4080         24
  53.4266         25
  53.4452         19
  53.4637         26
  53.4823         20
  53.5009         24
  53.5195         17
  53.5380         18
  53.5566         19
  53.5752         27
  53.5938         26
  53.6123         18
  53.6309         27
  53.6495         11
  53.6681         29
  53.6866         26
  53.7052         28
  53.7238         15
  53.7424         17
  53.7610         23
  53.7795         27
  53.7981         19
  53.8167         26
  53.8353         28
  53.8538         23
  53.8724         15
  53.8910         16
  53.9096         30
  53.9281         17
  53.9467         25
  53.9653         28
  53.9839         29
  54.0024         28
  54.0210         25
  54.0396         23
  54.0582         21
  54.0767         29
  54.0953         22
  54.1139         29
  54.1325         27
  54.1510         34
  54.1696         24
  54.1882         25
  54.2068         17
  54.2253         20
  54.2439         26
  54.2625         20
  54.2811         19
  54.2996         23
  54.3182         17
  54.3368         19
  54.3554         29
  54.3739         19
  54.3925         25
  54.4111         18
  54.4297         21
  54.4482         19
  54.4668         26
  54.4854         27
  54.5040         21
  54.5225         18
  54.5411         24
  54.5597         24
  54.5783         21
  54.5969         23
  54.6154         17
  54.6340         17
  54.6526         17
  54.6712         10
  54.6897         24
  54.7083         16
  54.7269         18
  54.7455         21
  54.7640         18
  54.7826         24
  54.8012         22
  54.8198         19
  54.8383         28
  54.8569         10
  54.8755         19
  54.8941         19
  54.9126         16
  54.9312         27
  54.9498         22
  54.9684         26
  54.9869         20
  55.0055         21
  55.0241         18
  55.0427         27
  55.0612         18
  55.0798         24
  55.0984         23
  55.1170         22
  55.1355         25
  55.1541         26
  55.1727         16
  55.1913         24
  55.2098         21
  55.2284         20
  55.2470         16
  55.2656         18
  55.2841         18
  55.3027         19
  55.3213         20
  55.3399         27
  55.3585         19
  55.3770         18
  55.3956         21
  55.4142         19
  55.4328         20
  55.4513         24
  55.4699         30
  55.4885         19
  55.5071         21
  55.5256         18
  55.5442         33
  55.5628         22
  55.5814         23
  55.5999         27
  55.6185         23
  55.6371         25
  55.6557         18
  55.6742         20
  55.6928         16
  55.7114         17
  55.7300         24
  55.7485         30
  55.7671         19
  55.7857         16
  55.8043         19
  55.8228         25
  55.8414         15
  55.8600         25
  55.8786          9
  55.8971         15
  55.9157         20
  55.9343         14
  55.9529         10
  55.9714         22
  55.9900         21
  56.0086         26
  56.0272         14
  56.0457         18
  56.0643         23
  56.0829         22
  56.1015         25
  56.1201         26
  56.1386         23
  56.1572         29
  56.1758         13
  56.1944         18
  56.2129         27
  56.2315         15
  56.2501         27
  56.2687         32
  56.2872         23
  56.3058         22
  56.3244         21
  56.3430         16
  56.3615         18
  56.3801         25
  56.3987         21
  56.4173         18
  56.4358         17
  56.4544         21
  56.4730         25
  56.4916         23
  56.5101         22
  56.5287         25
  56.5473         26
  56.5659         24
  56.5844         16
  56.6030         17
  56.6216         20
  56.6402         26
  56.6587         22
  56.6773         27
  56.6959         31
  56.7145         24
  56.7330         21
  56.7516         22
  56.7702         17
  56.7888         22
  56.8073         12
  56.8259         25
  56.8445         23
  56.8631         17
  56.8817         28
  56.9002         23
  56.9188         17
  56.9374         23
  56.9560         21
  56.9745         15
  56.9931         23
  57.0117         21
  57.0303         16
  57.0488         17
  57.0674         16
  57.0860         18
  57.1046         21
  57.1231         14
  57.1417         14
  57.1603         18
  57.1789         27
  57.1974         21
  57.2160         26
  57.2346         26
  57.2532         18
  57.2717         28
  57.2903         21
  57.3089         13
  57.3275         17
  57.3460         22
  57.3646         21
  57.3832         25
  57.4018         25
  57.4203         23
  57.4389         23
  57.4575         25
  57.4761         14
  57.4946         31
  57.5132         20
  57.5318         21
  57.5504         16
  57.5689         19
  57.5875         17
  57.6061         19
  57.6247         21
  57.6433         32
  57.6618         14
  57.6804         15
  57.6990         21
  57.7176         29
  57.7361         21
  57.7547         20
  57.7733         21
  57.7919         21
  57.8104         18
  57.8290         18
  57.8476         18
  57.8662         28
  57.8847         26
  57.9033         15
  57.9219         17
  57.9405         25
  57.9590         25
  57.9776         15
  57.9962         18
  58.0148         27
  58.0333         12
  58.0519         19
  58.0705         22
  58.0891         24
  58.1076         20
  58.1262         20
  58.1448         23
  58.1634         17
  58.1819         22
  58.2005         29
  58.2191         25
  58.2377         15
  58.2562         23
  58.2748         19
  58.2934         20
  58.3120         24
  58.3305         23
  58.3491         18
  58.3677         29
  58.3863         31
  58.4049         22
  58.4234         19
  58.4420         24
  58.4606         13
  58.4792         26
  58.4977         15
  58.5163         19
  58.5349         22
  58.5535         21
  58.5720         15
  58.5906         26
  58.6092         17
  58.6278         17
  58.6463         17
  58.6649         19
  58.6835         24
  58.7021         24
  58.7206         19
  58.7392         20
  58.7578         27
  58.7764         19
  58.7949         23
  58.8135         16
  58.8321         20
  58.8507         20
  58.8692         16
  58.8878         16
  58.9064         26
  58.9250         18
  58.9435         13
  58.9621         17
  58.9807         21
  58.9993         19
  59.0178         21
  59.0364         21
  59.0550         12
  59.0736         23
  59.0921         19
  59.1107         23
  59.1293         19
  59.1479         14
  59.1664         26
  59.1850         11
  59.2036         12
  59.2222         18
  59.2408         15
  59.2593         12
  59.2779          8
  59.2965         22
  59.3151         26
  59.3336         27
  59.3522         16
  59.3708         22
  59.3894         29
  59.4079         23
  59.4265         17
  59.4451         22
  59.4637         13
  59.4822         14
  59.5008         17
  59.5194         18
  59.5380         17
  59.5565         21
  59.5751         24
  59.5937         29
  59.6123         19
  59.6308         26
  59.6494         23
  59.6680         18
  59.6866         14
  59.7051         20
  59.7237         22
  59.7423         17
  59.7609         16
  59.7794         24
  59.7980         18
  59.8166         23
  59.8352         24
  59.8537         12
  59.8723          7
  59.8909         19
  59.9095         11
  59.9280         20
  59.9466         23
  59.9652         21
  59.9838         17
  60.0024         19
