; (content of file Y:\Sam\Apurva-07-20-2022\puck4\ML_20220718_47_SJD_4_LaB6-2min.raw)
_FILEVERSION = 3
_SAMPLE = ML_20220718_47_SJD_4_LaB6-2min
_+SAMPLE = 
_SITE = USA
_USER = Administrator
_GONIOMETER_CODE = 20
; Goniometer : D8 theta/2theta, stage : Unknown
_ATTACHMENTS_CODE = 0
_GONIOMETER_RADIUS = 200.5
_FIXED_DIVSLIT = 0.6
_FIXED_SAMPLESLIT = 0
_SOLLER_SLITS = 2
_FIXED_DETSLIT = 9.55
_MONOCHROMATOR = 0
; Incident beam monochromator : None
_SOLLER_SLITS_2 = N
_THIN_FILM = N
_BETA_FILTER = Y
_FIXED_ANTISLIT = 5.89
_ANALYZER_CODE = 0
; Received beam analyzer : None
_DATEMEASURED = "26-Jul-2022 12:20:28"
_WL_UNIT = A
_WL1 = 1.5406
_WL2 = 1.54439
_WL3 = 1.39222
_WLRATIO = 0.5
_ANODE = Cu
_V4_INF_CREATOR = XRDWizard
_V4_INF_CREATOR_VERSION = V2.9.0.22
_V4_INF_WIZARD_VERSION = V2.9.0.22
_V4_INF_WIZARD_ADDINS = V2.9.0.22
_V4_INF_WIZARD_DOCTYPE = XRD
_V4_INF_OSUSER = McQueenLab
_V4_INF_USER = Administrator
_V4_INF_SITE = USA
_V4_INF_SAMPLEID = ML_20220718_47_SJD_4_LaB6-2min

; Data for range 1
_DRIVE = COUPLED
_STEPTIME = 5.64
_STEPSIZE = 0.0185756
_STEPMODE = C
_START = 5
_THETA = 2.5
_2THETA = 5
_KHI = 0
_PHI = 0
_X = 0
_Y = 0
_Z = 0
_DETECTOR = 5
; Detector type : Unknown
_DETECTORSLIT = unkn
_AUX1 = 0
_AUX2 = 0
_AUX3 = 0
_TIMESTARTED = 15
_TEMP_RATE = -1
_TEMP_DELAY = -1
_KV = 40
_MA = 40
_RANGE_WL = 1.5406
_3DPLANE = 0
_V4_ADDITIONALDETECTOR = 257
_V4_PSD2THETA = 3.4089
_V4_PSDCHANNEL1 = 0
_V4_PSDAPERTURE = 12.68
_V4_PSDTYPE = 5
_V4_PSDFIXED = 0
_V4_COUNTERS_MASK = 4096
_V4_DRIVES_MASK = 0
_V4_ENCODERS_MASK = 0
_2THETACOUNTS = 1
; 2THETA  PSD
   5.0000        140
   5.0186        130
   5.0372        124
   5.0557        126
   5.0743        109
   5.0929        117
   5.1115        129
   5.1300        117
   5.1486        117
   5.1672        127
   5.1858        110
   5.2043        139
   5.2229        121
   5.2415        127
   5.2601        114
   5.2786        108
   5.2972         88
   5.3158        123
   5.3344        137
   5.3529         87
   5.3715        109
   5.3901        136
   5.4087        119
   5.4272        118
   5.4458        127
   5.4644        111
   5.4830        100
   5.5015        105
   5.5201        112
   5.5387        146
   5.5573        105
   5.5758        118
   5.5944        120
   5.6130         97
   5.6316        103
   5.6501        101
   5.6687        104
   5.6873         97
   5.7059         92
   5.7244         99
   5.7430         93
   5.7616        115
   5.7802        113
   5.7988        116
   5.8173         95
   5.8359        106
   5.8545        104
   5.8731        104
   5.8916        129
   5.9102         89
   5.9288         95
   5.9474        117
   5.9659         87
   5.9845        107
   6.0031         98
   6.0217         93
   6.0402         91
   6.0588         95
   6.0774         90
   6.0960         97
   6.1145         92
   6.1331         95
   6.1517         93
   6.1703        103
   6.1888         83
   6.2074        120
   6.2260         76
   6.2446         93
   6.2631         94
   6.2817         86
   6.3003         98
   6.3189         97
   6.3374         83
   6.3560         89
   6.3746         96
   6.3932        111
   6.4117         84
   6.4303        107
   6.4489         94
   6.4675         92
   6.4860        107
   6.5046         85
   6.5232         74
   6.5418         91
   6.5604         82
   6.5789         93
   6.5975         85
   6.6161         85
   6.6347         88
   6.6532         82
   6.6718         98
   6.6904         79
   6.7090         93
   6.7275         97
   6.7461         78
   6.7647         75
   6.7833         67
   6.8018         77
   6.8204         76
   6.8390         73
   6.8576         77
   6.8761         82
   6.8947         91
   6.9133         98
   6.9319         88
   6.9504         76
   6.9690         79
   6.9876         62
   7.0062         83
   7.0247         77
   7.0433         82
   7.0619         76
   7.0805         91
   7.0990         68
   7.1176         57
   7.1362         76
   7.1548         83
   7.1733         80
   7.1919         74
   7.2105         83
   7.2291         85
   7.2476         74
   7.2662         73
   7.2848         76
   7.3034         71
   7.3220         82
   7.3405         89
   7.3591         88
   7.3777         91
   7.3963         74
   7.4148         73
   7.4334         69
   7.4520         93
   7.4706         89
   7.4891         81
   7.5077         69
   7.5263         77
   7.5449         77
   7.5634        110
   7.5820         85
   7.6006         81
   7.6192         83
   7.6377         78
   7.6563         85
   7.6749        115
   7.6935         77
   7.7120         91
   7.7306         88
   7.7492         87
   7.7678         79
   7.7863         96
   7.8049         86
   7.8235         98
   7.8421         83
   7.8606         92
   7.8792         94
   7.8978         92
   7.9164         78
   7.9349         84
   7.9535         89
   7.9721         90
   7.9907         97
   8.0092         93
   8.0278         81
   8.0464         68
   8.0650        103
   8.0835        101
   8.1021         87
   8.1207         97
   8.1393        102
   8.1579         76
   8.1764         86
   8.1950         99
   8.2136         95
   8.2322         89
   8.2507         86
   8.2693         91
   8.2879         98
   8.3065        101
   8.3250        106
   8.3436        105
   8.3622        103
   8.3808        100
   8.3993        104
   8.4179        100
   8.4365        111
   8.4551         96
   8.4736         84
   8.4922        113
   8.5108         85
   8.5294         90
   8.5479        106
   8.5665         93
   8.5851        100
   8.6037         93
   8.6222        107
   8.6408         99
   8.6594        104
   8.6780        107
   8.6965         79
   8.7151        114
   8.7337        116
   8.7523        107
   8.7708         86
   8.7894        110
   8.8080        108
   8.8266         88
   8.8451        130
   8.8637         97
   8.8823        121
   8.9009        102
   8.9195         88
   8.9380        103
   8.9566         93
   8.9752         99
   8.9938        104
   9.0123         91
   9.0309        109
   9.0495        108
   9.0681        118
   9.0866         93
   9.1052        120
   9.1238        113
   9.1424        121
   9.1609         98
   9.1795         94
   9.1981        109
   9.2167        116
   9.2352         91
   9.2538        122
   9.2724        111
   9.2910        116
   9.3095        117
   9.3281        110
   9.3467        105
   9.3653        100
   9.3838        123
   9.4024        110
   9.4210        109
   9.4396        112
   9.4581        108
   9.4767        133
   9.4953        106
   9.5139        102
   9.5324        102
   9.5510        121
   9.5696        104
   9.5882        111
   9.6067        109
   9.6253        109
   9.6439        116
   9.6625        118
   9.6811         98
   9.6996        117
   9.7182        116
   9.7368         95
   9.7554        118
   9.7739        110
   9.7925        110
   9.8111        111
   9.8297        115
   9.8482        121
   9.8668         98
   9.8854        107
   9.9040        118
   9.9225         99
   9.9411        109
   9.9597        114
   9.9783        127
   9.9968        132
  10.0154        127
  10.0340        120
  10.0526        113
  10.0711        125
  10.0897        106
  10.1083        109
  10.1269        124
  10.1454        126
  10.1640        124
  10.1826        125
  10.2012        120
  10.2197        124
  10.2383        113
  10.2569        114
  10.2755        126
  10.2940        126
  10.3126        128
  10.3312        117
  10.3498        121
  10.3683        113
  10.3869        113
  10.4055        105
  10.4241        102
  10.4427        110
  10.4612        139
  10.4798        122
  10.4984        110
  10.5170        116
  10.5355        124
  10.5541        129
  10.5727        100
  10.5913        128
  10.6098        110
  10.6284        131
  10.6470        139
  10.6656        130
  10.6841        113
  10.7027        105
  10.7213        115
  10.7399        123
  10.7584        118
  10.7770        123
  10.7956        113
  10.8142        138
  10.8327        115
  10.8513        133
  10.8699        105
  10.8885        104
  10.9070        107
  10.9256        102
  10.9442        113
  10.9628        122
  10.9813        134
  10.9999        130
  11.0185        127
  11.0371        117
  11.0556        131
  11.0742        133
  11.0928        123
  11.1114        104
  11.1299        120
  11.1485        143
  11.1671        112
  11.1857        111
  11.2043        112
  11.2228        112
  11.2414        130
  11.2600        144
  11.2786        109
  11.2971        103
  11.3157        113
  11.3343        128
  11.3529        101
  11.3714        133
  11.3900        119
  11.4086        109
  11.4272        108
  11.4457        122
  11.4643         91
  11.4829        128
  11.5015        102
  11.5200        111
  11.5386        125
  11.5572        109
  11.5758        121
  11.5943        109
  11.6129        115
  11.6315        133
  11.6501        126
  11.6686        126
  11.6872        133
  11.7058        122
  11.7244        117
  11.7429        122
  11.7615        120
  11.7801         98
  11.7987        121
  11.8172        111
  11.8358        121
  11.8544        122
  11.8730        116
  11.8915        114
  11.9101        115
  11.9287        121
  11.9473        127
  11.9659        124
  11.9844        133
  12.0030         99
  12.0216        114
  12.0402        112
  12.0587        106
  12.0773        105
  12.0959        114
  12.1145        124
  12.1330        111
  12.1516        121
  12.1702        116
  12.1888        100
  12.2073        116
  12.2259        109
  12.2445        111
  12.2631        103
  12.2816         89
  12.3002        113
  12.3188        111
  12.3374        105
  12.3559        102
  12.3745         96
  12.3931        128
  12.4117        101
  12.4302         91
  12.4488        109
  12.4674        119
  12.4860        128
  12.5045        108
  12.5231        120
  12.5417        112
  12.5603         99
  12.5788        110
  12.5974        111
  12.6160        105
  12.6346        107
  12.6531        115
  12.6717         99
  12.6903        114
  12.7089         94
  12.7274         89
  12.7460        101
  12.7646        120
  12.7832        112
  12.8018        108
  12.8203        116
  12.8389         94
  12.8575         94
  12.8761        102
  12.8946        109
  12.9132        104
  12.9318        123
  12.9504        103
  12.9689         82
  12.9875        104
  13.0061         89
  13.0247        102
  13.0432         98
  13.0618         92
  13.0804         94
  13.0990         91
  13.1175         91
  13.1361        117
  13.1547        100
  13.1733        100
  13.1918         85
  13.2104         95
  13.2290         93
  13.2476        115
  13.2661         92
  13.2847        104
  13.3033         89
  13.3219        106
  13.3404         88
  13.3590         94
  13.3776        106
  13.3962         85
  13.4147        102
  13.4333         93
  13.4519         82
  13.4705         83
  13.4890         92
  13.5076        113
  13.5262         69
  13.5448        108
  13.5634         88
  13.5819         94
  13.6005         89
  13.6191         95
  13.6377         76
  13.6562         96
  13.6748         93
  13.6934         85
  13.7120        112
  13.7305         99
  13.7491        112
  13.7677        100
  13.7863         83
  13.8048        106
  13.8234        101
  13.8420        109
  13.8606         85
  13.8791         74
  13.8977        102
  13.9163         86
  13.9349        105
  13.9534         99
  13.9720         80
  13.9906         76
  14.0092         99
  14.0277         98
  14.0463         90
  14.0649         98
  14.0835         87
  14.1020         87
  14.1206         75
  14.1392        101
  14.1578        103
  14.1763         96
  14.1949        101
  14.2135         92
  14.2321         83
  14.2506         87
  14.2692         86
  14.2878         73
  14.3064        106
  14.3250         68
  14.3435         96
  14.3621         86
  14.3807         86
  14.3993         70
  14.4178         75
  14.4364         84
  14.4550         94
  14.4736         80
  14.4921        100
  14.5107         92
  14.5293         95
  14.5479         98
  14.5664         89
  14.5850         81
  14.6036         73
  14.6222         84
  14.6407         91
  14.6593         86
  14.6779         89
  14.6965         95
  14.7150         67
  14.7336         77
  14.7522         78
  14.7708         79
  14.7893         89
  14.8079         72
  14.8265         92
  14.8451         80
  14.8636         76
  14.8822         93
  14.9008         77
  14.9194         87
  14.9379         78
  14.9565         79
  14.9751         76
  14.9937         91
  15.0122         84
  15.0308         87
  15.0494         72
  15.0680         72
  15.0866         82
  15.1051        104
  15.1237         75
  15.1423         86
  15.1609         79
  15.1794         97
  15.1980         96
  15.2166         83
  15.2352         78
  15.2537         99
  15.2723         82
  15.2909         85
  15.3095         78
  15.3280         83
  15.3466         73
  15.3652         89
  15.3838         93
  15.4023         82
  15.4209         76
  15.4395         83
  15.4581        102
  15.4766         71
  15.4952         85
  15.5138         97
  15.5324         75
  15.5509         74
  15.5695         85
  15.5881         90
  15.6067         72
  15.6252         78
  15.6438         74
  15.6624        102
  15.6810         85
  15.6995         75
  15.7181         67
  15.7367         89
  15.7553         69
  15.7738         80
  15.7924         77
  15.8110         93
  15.8296         77
  15.8482         82
  15.8667         79
  15.8853         68
  15.9039        101
  15.9225         80
  15.9410         83
  15.9596         78
  15.9782         74
  15.9968         84
  16.0153         96
  16.0339         91
  16.0525         81
  16.0711         93
  16.0896         89
  16.1082         79
  16.1268         79
  16.1454         72
  16.1639         71
  16.1825         85
  16.2011         63
  16.2197         78
  16.2382         81
  16.2568         65
  16.2754         75
  16.2940         76
  16.3125         74
  16.3311         85
  16.3497         87
  16.3683         80
  16.3868         68
  16.4054         75
  16.4240         82
  16.4426         76
  16.4611         88
  16.4797         86
  16.4983         74
  16.5169         72
  16.5354         78
  16.5540         69
  16.5726         74
  16.5912         84
  16.6097         85
  16.6283         80
  16.6469         79
  16.6655         86
  16.6841         74
  16.7026         79
  16.7212         73
  16.7398         63
  16.7584         78
  16.7769         88
  16.7955         98
  16.8141         83
  16.8327         84
  16.8512         93
  16.8698         87
  16.8884         80
  16.9070         84
  16.9255         68
  16.9441         81
  16.9627         72
  16.9813         62
  16.9998         61
  17.0184         70
  17.0370         68
  17.0556         77
  17.0741         96
  17.0927         97
  17.1113         80
  17.1299         84
  17.1484         77
  17.1670         92
  17.1856         75
  17.2042         90
  17.2227         91
  17.2413         73
  17.2599         94
  17.2785         81
  17.2970         86
  17.3156         77
  17.3342         61
  17.3528         72
  17.3713         89
  17.3899         84
  17.4085         65
  17.4271         90
  17.4457         75
  17.4642         77
  17.4828         88
  17.5014         80
  17.5200         81
  17.5385         85
  17.5571         77
  17.5757         69
  17.5943         85
  17.6128         77
  17.6314         97
  17.6500         92
  17.6686         78
  17.6871         91
  17.7057         91
  17.7243         61
  17.7429         67
  17.7614         69
  17.7800         90
  17.7986         81
  17.8172         69
  17.8357         79
  17.8543         86
  17.8729         79
  17.8915         84
  17.9100         74
  17.9286         68
  17.9472         83
  17.9658         78
  17.9843         79
  18.0029         77
  18.0215         77
  18.0401         84
  18.0586         68
  18.0772         88
  18.0958         84
  18.1144         89
  18.1329         76
  18.1515         89
  18.1701         92
  18.1887         91
  18.2073         86
  18.2258         94
  18.2444         81
  18.2630         97
  18.2816         79
  18.3001         83
  18.3187         89
  18.3373         73
  18.3559         76
  18.3744         62
  18.3930         80
  18.4116         62
  18.4302         73
  18.4487         73
  18.4673         92
  18.4859         76
  18.5045         65
  18.5230         77
  18.5416         77
  18.5602         72
  18.5788         84
  18.5973         90
  18.6159         68
  18.6345         80
  18.6531         84
  18.6716         96
  18.6902         84
  18.7088         99
  18.7274         92
  18.7459         95
  18.7645         75
  18.7831         85
  18.8017         75
  18.8202         89
  18.8388         74
  18.8574         76
  18.8760         89
  18.8945         76
  18.9131         90
  18.9317         73
  18.9503         58
  18.9689         97
  18.9874         87
  19.0060         95
  19.0246         74
  19.0432         97
  19.0617         90
  19.0803         72
  19.0989         98
  19.1175         69
  19.1360         78
  19.1546         87
  19.1732         88
  19.1918         87
  19.2103         79
  19.2289         69
  19.2475         72
  19.2661         78
  19.2846         77
  19.3032        103
  19.3218         81
  19.3404         88
  19.3589         89
  19.3775         93
  19.3961         86
  19.4147         89
  19.4332         84
  19.4518         90
  19.4704         85
  19.4890         79
  19.5075         95
  19.5261         89
  19.5447         78
  19.5633         92
  19.5818         71
  19.6004         87
  19.6190         59
  19.6376         88
  19.6561         84
  19.6747         94
  19.6933         83
  19.7119         82
  19.7305         69
  19.7490         84
  19.7676         90
  19.7862         96
  19.8048         82
  19.8233         75
  19.8419         92
  19.8605         74
  19.8791        102
  19.8976         98
  19.9162         85
  19.9348         79
  19.9534         86
  19.9719         79
  19.9905         88
  20.0091         94
  20.0277         82
  20.0462         91
  20.0648         86
  20.0834         82
  20.1020         69
  20.1205         90
  20.1391         88
  20.1577        106
  20.1763         93
  20.1948         88
  20.2134         74
  20.2320        106
  20.2506         74
  20.2691         87
  20.2877        102
  20.3063         95
  20.3249         97
  20.3434         96
  20.3620         84
  20.3806         81
  20.3992         94
  20.4177         80
  20.4363         97
  20.4549         91
  20.4735         95
  20.4921         94
  20.5106        106
  20.5292         77
  20.5478         76
  20.5664         88
  20.5849         93
  20.6035         86
  20.6221         97
  20.6407         77
  20.6592         93
  20.6778         90
  20.6964         92
  20.7150        102
  20.7335         97
  20.7521        116
  20.7707        102
  20.7893         98
  20.8078         79
  20.8264         94
  20.8450         89
  20.8636        105
  20.8821        102
  20.9007        111
  20.9193        109
  20.9379        105
  20.9564         99
  20.9750         96
  20.9936        118
  21.0122        100
  21.0307         93
  21.0493         96
  21.0679        109
  21.0865        123
  21.1050        110
  21.1236        108
  21.1422        108
  21.1608        109
  21.1793        126
  21.1979        123
  21.2165        172
  21.2351        149
  21.2537        147
  21.2722        150
  21.2908        167
  21.3094        136
  21.3280        180
  21.3465        222
  21.3651        245
  21.3837        209
  21.4023        174
  21.4208        166
  21.4394        131
  21.4580        127
  21.4766        105
  21.4951        102
  21.5137        101
  21.5323         91
  21.5509        103
  21.5694         88
  21.5880        104
  21.6066        103
  21.6252         99
  21.6437         90
  21.6623         95
  21.6809         95
  21.6995         94
  21.7180         82
  21.7366         90
  21.7552        101
  21.7738        100
  21.7923        110
  21.8109        111
  21.8295         83
  21.8481        101
  21.8666         83
  21.8852        101
  21.9038         91
  21.9224        107
  21.9409         82
  21.9595         91
  21.9781        102
  21.9967         88
  22.0152        104
  22.0338         92
  22.0524         98
  22.0710         97
  22.0896         93
  22.1081         98
  22.1267        107
  22.1453         87
  22.1639        114
  22.1824         90
  22.2010        102
  22.2196         89
  22.2382         92
  22.2567         96
  22.2753        117
  22.2939        103
  22.3125        115
  22.3310         82
  22.3496        113
  22.3682         92
  22.3868        106
  22.4053        108
  22.4239         96
  22.4425         82
  22.4611         93
  22.4796        105
  22.4982         91
  22.5168         85
  22.5354         88
  22.5539         90
  22.5725        126
  22.5911        117
  22.6097        100
  22.6282         92
  22.6468        104
  22.6654        115
  22.6840         91
  22.7025         97
  22.7211         88
  22.7397        106
  22.7583         76
  22.7768         97
  22.7954         91
  22.8140        101
  22.8326        102
  22.8512         98
  22.8697        107
  22.8883        112
  22.9069        104
  22.9255        101
  22.9440        102
  22.9626         83
  22.9812        110
  22.9998        111
  23.0183         90
  23.0369         98
  23.0555        110
  23.0741        110
  23.0926        103
  23.1112         77
  23.1298         84
  23.1484        112
  23.1669         99
  23.1855        110
  23.2041        113
  23.2227         98
  23.2412         99
  23.2598         93
  23.2784         85
  23.2970         98
  23.3155        105
  23.3341         83
  23.3527         84
  23.3713         84
  23.3898         78
  23.4084         80
  23.4270        102
  23.4456         79
  23.4641         92
  23.4827         81
  23.5013        113
  23.5199         93
  23.5384         96
  23.5570        107
  23.5756         85
  23.5942         98
  23.6128         86
  23.6313        101
  23.6499        101
  23.6685         88
  23.6871        111
  23.7056         91
  23.7242         98
  23.7428        107
  23.7614         90
  23.7799        109
  23.7985        105
  23.8171         98
  23.8357         96
  23.8542         92
  23.8728         98
  23.8914        112
  23.9100        108
  23.9285        105
  23.9471         92
  23.9657         94
  23.9843        107
  24.0028         91
  24.0214         91
  24.0400        112
  24.0586         93
  24.0771        103
  24.0957        113
  24.1143         92
  24.1329         97
  24.1514        103
  24.1700        113
  24.1886         99
  24.2072        104
  24.2257        108
  24.2443        107
  24.2629         82
  24.2815        126
  24.3000        112
  24.3186        125
  24.3372        111
  24.3558        111
  24.3744        103
  24.3929        106
  24.4115        107
  24.4301        105
  24.4487        118
  24.4672         97
  24.4858        104
  24.5044        110
  24.5230        110
  24.5415         81
  24.5601        113
  24.5787         96
  24.5973         99
  24.6158         97
  24.6344         82
  24.6530        106
  24.6716        103
  24.6901         96
  24.7087         97
  24.7273         86
  24.7459         93
  24.7644        101
  24.7830         94
  24.8016        100
  24.8202        104
  24.8387         96
  24.8573        111
  24.8759         98
  24.8945         97
  24.9130        121
  24.9316        101
  24.9502         83
  24.9688         91
  24.9873        102
  25.0059        104
  25.0245        101
  25.0431        107
  25.0616         94
  25.0802         93
  25.0988         93
  25.1174        104
  25.1360         92
  25.1545         74
  25.1731         93
  25.1917         98
  25.2103        108
  25.2288         99
  25.2474         90
  25.2660         83
  25.2846        104
  25.3031         94
  25.3217        102
  25.3403        107
  25.3589        101
  25.3774        106
  25.3960        127
  25.4146        100
  25.4332         92
  25.4517        110
  25.4703         92
  25.4889         92
  25.5075         95
  25.5260         93
  25.5446         86
  25.5632        102
  25.5818        101
  25.6003         94
  25.6189        106
  25.6375         81
  25.6561         98
  25.6746         88
  25.6932         92
  25.7118         92
  25.7304         85
  25.7489         84
  25.7675        110
  25.7861         79
  25.8047        108
  25.8232        105
  25.8418         79
  25.8604        118
  25.8790         92
  25.8976        104
  25.9161         94
  25.9347        109
  25.9533        107
  25.9719         91
  25.9904         98
  26.0090         94
  26.0276         99
  26.0462        111
  26.0647         81
  26.0833         87
  26.1019         91
  26.1205         71
  26.1390         78
  26.1576         97
  26.1762         86
  26.1948         84
  26.2133         86
  26.2319         85
  26.2505         98
  26.2691         95
  26.2876         93
  26.3062         90
  26.3248         82
  26.3434         80
  26.3619        109
  26.3805         95
  26.3991         97
  26.4177         90
  26.4362         82
  26.4548         98
  26.4734         91
  26.4920         67
  26.5105        103
  26.5291         98
  26.5477         84
  26.5663        103
  26.5848         98
  26.6034         90
  26.6220         85
  26.6406         95
  26.6591        101
  26.6777         84
  26.6963         87
  26.7149         90
  26.7335         89
  26.7520         95
  26.7706         88
  26.7892         77
  26.8078         88
  26.8263         81
  26.8449         86
  26.8635         83
  26.8821         85
  26.9006         86
  26.9192        104
  26.9378        100
  26.9564        108
  26.9749         80
  26.9935         87
  27.0121         85
  27.0307         88
  27.0492         78
  27.0678        106
  27.0864         96
  27.1050         97
  27.1235         95
  27.1421        115
  27.1607         88
  27.1793        119
  27.1978        135
  27.2164        121
  27.2350        124
  27.2536        104
  27.2721        101
  27.2907        109
  27.3093        117
  27.3279         83
  27.3464         90
  27.3650         99
  27.3836         94
  27.4022         84
  27.4207         94
  27.4393         83
  27.4579         79
  27.4765        101
  27.4951         84
  27.5136         98
  27.5322         96
  27.5508         86
  27.5694         98
  27.5879         87
  27.6065         90
  27.6251         89
  27.6437         74
  27.6622         99
  27.6808         73
  27.6994         98
  27.7180         90
  27.7365         93
  27.7551         96
  27.7737         91
  27.7923         70
  27.8108         93
  27.8294         78
  27.8480         91
  27.8666        103
  27.8851         90
  27.9037         82
  27.9223         82
  27.9409         82
  27.9594         73
  27.9780         81
  27.9966         89
  28.0152         89
  28.0337         76
  28.0523         94
  28.0709         90
  28.0895         63
  28.1080         92
  28.1266         69
  28.1452         78
  28.1638         82
  28.1823         89
  28.2009         74
  28.2195         82
  28.2381         75
  28.2567         75
  28.2752         82
  28.2938         97
  28.3124         90
  28.3310         95
  28.3495         96
  28.3681         95
  28.3867         77
  28.4053         95
  28.4238         93
  28.4424         86
  28.4610         84
  28.4796         76
  28.4981         78
  28.5167         85
  28.5353         83
  28.5539         80
  28.5724         75
  28.5910         79
  28.6096         82
  28.6282         78
  28.6467         76
  28.6653         91
  28.6839         76
  28.7025         67
  28.7210         82
  28.7396         88
  28.7582         64
  28.7768         90
  28.7953         86
  28.8139         73
  28.8325         89
  28.8511         68
  28.8696         73
  28.8882         80
  28.9068         77
  28.9254         82
  28.9439         87
  28.9625         79
  28.9811         69
  28.9997         97
  29.0183         74
  29.0368         77
  29.0554         69
  29.0740         87
  29.0926         64
  29.1111         85
  29.1297         83
  29.1483         65
  29.1669         62
  29.1854         59
  29.2040         87
  29.2226         84
  29.2412         69
  29.2597         77
  29.2783         82
  29.2969         78
  29.3155         74
  29.3340         78
  29.3526         79
  29.3712         65
  29.3898         73
  29.4083         73
  29.4269         85
  29.4455         73
  29.4641         86
  29.4826         74
  29.5012         85
  29.5198         88
  29.5384         68
  29.5569         83
  29.5755         75
  29.5941         69
  29.6127         84
  29.6312         91
  29.6498         74
  29.6684         70
  29.6870         74
  29.7055         83
  29.7241         77
  29.7427         69
  29.7613         82
  29.7799         74
  29.7984         75
  29.8170         84
  29.8356         83
  29.8542         59
  29.8727         78
  29.8913         85
  29.9099         67
  29.9285         84
  29.9470         78
  29.9656         70
  29.9842         77
  30.0028         81
  30.0213         71
  30.0399         72
  30.0585         81
  30.0771         84
  30.0956         82
  30.1142         68
  30.1328         88
  30.1514         80
  30.1699         89
  30.1885         65
  30.2071         86
  30.2257         72
  30.2442         78
  30.2628         80
  30.2814        102
  30.3000         84
  30.3185         95
  30.3371         88
  30.3557        112
  30.3743        137
  30.3928        167
  30.4114        163
  30.4300        114
  30.4486        131
  30.4671        130
  30.4857        125
  30.5043         92
  30.5229         90
  30.5415         78
  30.5600         82
  30.5786         78
  30.5972         72
  30.6158         63
  30.6343         74
  30.6529         65
  30.6715         66
  30.6901         75
  30.7086         69
  30.7272         92
  30.7458         72
  30.7644         81
  30.7829         86
  30.8015         69
  30.8201         65
  30.8387         84
  30.8572         69
  30.8758         69
  30.8944         78
  30.9130         69
  30.9315         77
  30.9501         70
  30.9687         67
  30.9873         70
  31.0058         63
  31.0244         73
  31.0430         50
  31.0616         67
  31.0801         82
  31.0987         65
  31.1173         61
  31.1359         66
  31.1544         69
  31.1730         74
  31.1916         85
  31.2102         80
  31.2287         89
  31.2473         81
  31.2659         63
  31.2845         61
  31.3030         48
  31.3216         56
  31.3402         63
  31.3588         69
  31.3774         70
  31.3959         70
  31.4145         69
  31.4331         65
  31.4517         77
  31.4702         65
  31.4888         73
  31.5074         67
  31.5260         71
  31.5445         67
  31.5631         68
  31.5817         65
  31.6003         68
  31.6188         70
  31.6374         68
  31.6560         70
  31.6746         52
  31.6931         65
  31.7117         56
  31.7303         71
  31.7489         80
  31.7674         68
  31.7860         69
  31.8046         61
  31.8232         72
  31.8417         67
  31.8603         59
  31.8789         64
  31.8975         69
  31.9160         52
  31.9346         64
  31.9532         62
  31.9718         59
  31.9903         61
  32.0089         69
  32.0275         64
  32.0461         72
  32.0646         73
  32.0832         66
  32.1018         59
  32.1204         55
  32.1390         67
  32.1575         64
  32.1761         55
  32.1947         59
  32.2133         66
  32.2318         52
  32.2504         67
  32.2690         70
  32.2876         58
  32.3061         62
  32.3247         79
  32.3433         40
  32.3619         60
  32.3804         70
  32.3990         62
  32.4176         54
  32.4362         71
  32.4547         75
  32.4733         89
  32.4919         79
  32.5105         76
  32.5290         76
  32.5476         74
  32.5662         74
  32.5848         72
  32.6033         79
  32.6219         64
  32.6405         71
  32.6591         63
  32.6776         70
  32.6962         71
  32.7148         57
  32.7334         52
  32.7519         67
  32.7705         62
  32.7891         76
  32.8077         70
  32.8262         61
  32.8448         58
  32.8634         62
  32.8820         66
  32.9006         50
  32.9191         65
  32.9377         57
  32.9563         57
  32.9749         78
  32.9934         61
  33.0120         61
  33.0306         55
  33.0492         80
  33.0677         67
  33.0863         61
  33.1049         70
  33.1235         51
  33.1420         40
  33.1606         53
  33.1792         60
  33.1978         46
  33.2163         68
  33.2349         65
  33.2535         63
  33.2721         66
  33.2906         58
  33.3092         66
  33.3278         47
  33.3464         68
  33.3649         60
  33.3835         59
  33.4021         57
  33.4207         71
  33.4392         61
  33.4578         51
  33.4764         65
  33.4950         59
  33.5135         57
  33.5321         57
  33.5507         67
  33.5693         47
  33.5878         50
  33.6064         61
  33.6250         47
  33.6436         61
  33.6622         61
  33.6807         49
  33.6993         58
  33.7179         56
  33.7365         62
  33.7550         50
  33.7736         51
  33.7922         60
  33.8108         59
  33.8293         69
  33.8479         64
  33.8665         51
  33.8851         49
  33.9036         56
  33.9222         54
  33.9408         54
  33.9594         56
  33.9779         47
  33.9965         70
  34.0151         49
  34.0337         42
  34.0522         63
  34.0708         47
  34.0894         55
  34.1080         55
  34.1265         50
  34.1451         58
  34.1637         61
  34.1823         58
  34.2008         53
  34.2194         54
  34.2380         46
  34.2566         64
  34.2751         42
  34.2937         57
  34.3123         52
  34.3309         59
  34.3494         58
  34.3680         68
  34.3866         54
  34.4052         51
  34.4238         62
  34.4423         67
  34.4609         60
  34.4795         52
  34.4981         63
  34.5166         56
  34.5352         53
  34.5538         49
  34.5724         53
  34.5909         52
  34.6095         66
  34.6281         60
  34.6467         58
  34.6652         52
  34.6838         70
  34.7024         59
  34.7210         78
  34.7395         68
  34.7581         80
  34.7767         67
  34.7953         86
  34.8138         53
  34.8324         72
  34.8510         76
  34.8696         83
  34.8881         67
  34.9067         67
  34.9253         55
  34.9439         56
  34.9624         57
  34.9810         61
  34.9996         69
  35.0182         73
  35.0367         49
  35.0553         55
  35.0739         60
  35.0925         60
  35.1110         43
  35.1296         59
  35.1482         51
  35.1668         66
  35.1854         54
  35.2039         55
  35.2225         52
  35.2411         46
  35.2597         51
  35.2782         62
  35.2968         45
  35.3154         46
  35.3340         33
  35.3525         70
  35.3711         57
  35.3897         64
  35.4083         57
  35.4268         49
  35.4454         49
  35.4640         50
  35.4826         40
  35.5011         49
  35.5197         50
  35.5383         68
  35.5569         50
  35.5754         41
  35.5940         48
  35.6126         57
  35.6312         55
  35.6497         49
  35.6683         55
  35.6869         55
  35.7055         48
  35.7240         48
  35.7426         55
  35.7612         46
  35.7798         44
  35.7983         39
  35.8169         57
  35.8355         52
  35.8541         48
  35.8726         52
  35.8912         52
  35.9098         60
  35.9284         49
  35.9469         43
  35.9655         42
  35.9841         48
  36.0027         49
  36.0213         45
  36.0398         40
  36.0584         50
  36.0770         53
  36.0956         46
  36.1141         40
  36.1327         49
  36.1513         46
  36.1699         51
  36.1884         49
  36.2070         55
  36.2256         50
  36.2442         54
  36.2627         49
  36.2813         40
  36.2999         57
  36.3185         46
  36.3370         70
  36.3556         61
  36.3742         51
  36.3928         35
  36.4113         46
  36.4299         44
  36.4485         55
  36.4671         41
  36.4856         40
  36.5042         44
  36.5228         57
  36.5414         50
  36.5599         46
  36.5785         34
  36.5971         60
  36.6157         58
  36.6342         52
  36.6528         48
  36.6714         44
  36.6900         32
  36.7085         45
  36.7271         44
  36.7457         34
  36.7643         55
  36.7829         51
  36.8014         51
  36.8200         37
  36.8386         43
  36.8572         39
  36.8757         50
  36.8943         46
  36.9129         46
  36.9315         32
  36.9500         51
  36.9686         50
  36.9872         45
  37.0058         45
  37.0243         47
  37.0429         53
  37.0615         39
  37.0801         49
  37.0986         52
  37.1172         43
  37.1358         47
  37.1544         41
  37.1729         54
  37.1915         40
  37.2101         39
  37.2287         42
  37.2472         50
  37.2658         33
  37.2844         46
  37.3030         46
  37.3215         49
  37.3401         43
  37.3587         34
  37.3773         46
  37.3958         48
  37.4144         61
  37.4330         70
  37.4516         77
  37.4701         64
  37.4887         52
  37.5073         59
  37.5259         51
  37.5445         63
  37.5630         54
  37.5816         52
  37.6002         36
  37.6188         49
  37.6373         50
  37.6559         45
  37.6745         45
  37.6931         40
  37.7116         52
  37.7302         29
  37.7488         37
  37.7674         31
  37.7859         37
  37.8045         46
  37.8231         45
  37.8417         53
  37.8602         54
  37.8788         48
  37.8974         43
  37.9160         40
  37.9345         32
  37.9531         49
  37.9717         48
  37.9903         52
  38.0088         55
  38.0274         48
  38.0460         39
  38.0646         38
  38.0831         28
  38.1017         42
  38.1203         45
  38.1389         38
  38.1574         35
  38.1760         40
  38.1946         41
  38.2132         45
  38.2317         35
  38.2503         33
  38.2689         44
  38.2875         44
  38.3061         39
  38.3246         39
  38.3432         37
  38.3618         43
  38.3804         47
  38.3989         31
  38.4175         48
  38.4361         47
  38.4547         37
  38.4732         37
  38.4918         49
  38.5104         36
  38.5290         34
  38.5475         46
  38.5661         41
  38.5847         35
  38.6033         41
  38.6218         39
  38.6404         49
  38.6590         44
  38.6776         33
  38.6961         41
  38.7147         38
  38.7333         38
  38.7519         51
  38.7704         43
  38.7890         44
  38.8076         35
  38.8262         40
  38.8447         53
  38.8633         48
  38.8819         55
  38.9005         41
  38.9190         36
  38.9376         55
  38.9562         34
  38.9748         46
  38.9933         35
  39.0119         39
  39.0305         49
  39.0491         54
  39.0677         39
  39.0862         43
  39.1048         43
  39.1234         35
  39.1420         44
  39.1605         41
  39.1791         41
  39.1977         31
  39.2163         42
  39.2348         44
  39.2534         34
  39.2720         39
  39.2906         34
  39.3091         50
  39.3277         39
  39.3463         44
  39.3649         48
  39.3834         38
  39.4020         39
  39.4206         37
  39.4392         36
  39.4577         32
  39.4763         34
  39.4949         41
  39.5135         39
  39.5320         40
  39.5506         38
  39.5692         45
  39.5878         39
  39.6063         31
  39.6249         36
  39.6435         46
  39.6621         25
  39.6806         37
  39.6992         40
  39.7178         43
  39.7364         42
  39.7549         40
  39.7735         43
  39.7921         42
  39.8107         33
  39.8293         40
  39.8478         41
  39.8664         33
  39.8850         48
  39.9036         45
  39.9221         40
  39.9407         39
  39.9593         28
  39.9779         45
  39.9964         42
  40.0150         42
  40.0336         48
  40.0522         37
  40.0707         42
  40.0893         40
  40.1079         34
  40.1265         33
  40.1450         40
  40.1636         38
  40.1822         44
  40.2008         43
  40.2193         38
  40.2379         31
  40.2565         48
  40.2751         38
  40.2936         41
  40.3122         31
  40.3308         35
  40.3494         31
  40.3679         40
  40.3865         40
  40.4051         37
  40.4237         37
  40.4422         29
  40.4608         43
  40.4794         32
  40.4980         39
  40.5165         33
  40.5351         40
  40.5537         32
  40.5723         32
  40.5908         36
  40.6094         40
  40.6280         36
  40.6466         41
  40.6652         34
  40.6837         40
  40.7023         43
  40.7209         41
  40.7395         52
  40.7580         29
  40.7766         45
  40.7952         38
  40.8138         41
  40.8323         31
  40.8509         38
  40.8695         36
  40.8881         36
  40.9066         41
  40.9252         32
  40.9438         39
  40.9624         40
  40.9809         51
  40.9995         38
  41.0181         50
  41.0367         37
  41.0552         36
  41.0738         34
  41.0924         38
  41.1110         40
  41.1295         33
  41.1481         34
  41.1667         45
  41.1853         36
  41.2038         38
  41.2224         38
  41.2410         45
  41.2596         35
  41.2781         38
  41.2967         33
  41.3153         40
  41.3339         42
  41.3524         33
  41.3710         32
  41.3896         41
  41.4082         42
  41.4268         40
  41.4453         27
  41.4639         33
  41.4825         34
  41.5011         37
  41.5196         35
  41.5382         32
  41.5568         40
  41.5754         37
  41.5939         40
  41.6125         40
  41.6311         29
  41.6497         38
  41.6682         41
  41.6868         30
  41.7054         35
  41.7240         43
  41.7425         38
  41.7611         36
  41.7797         43
  41.7983         47
  41.8168         41
  41.8354         29
  41.8540         25
  41.8726         35
  41.8911         41
  41.9097         46
  41.9283         41
  41.9469         46
  41.9654         25
  41.9840         41
  42.0026         33
  42.0212         46
  42.0397         47
  42.0583         40
  42.0769         23
  42.0955         34
  42.1140         32
  42.1326         41
  42.1512         33
  42.1698         38
  42.1884         34
  42.2069         28
  42.2255         39
  42.2441         33
  42.2627         26
  42.2812         41
  42.2998         30
  42.3184         36
  42.3370         35
  42.3555         38
  42.3741         35
  42.3927         40
  42.4113         35
  42.4298         36
  42.4484         35
  42.4670         42
  42.4856         39
  42.5041         29
  42.5227         39
  42.5413         40
  42.5599         39
  42.5784         30
  42.5970         32
  42.6156         32
  42.6342         31
  42.6527         46
  42.6713         35
  42.6899         37
  42.7085         32
  42.7270         33
  42.7456         40
  42.7642         35
  42.7828         34
  42.8013         39
  42.8199         45
  42.8385         41
  42.8571         21
  42.8756         44
  42.8942         33
  42.9128         48
  42.9314         36
  42.9500         38
  42.9685         32
  42.9871         40
  43.0057         42
  43.0243         40
  43.0428         47
  43.0614         33
  43.0800         39
  43.0986         45
  43.1171         44
  43.1357         37
  43.1543         33
  43.1729         45
  43.1914         39
  43.2100         49
  43.2286         46
  43.2472         49
  43.2657         43
  43.2843         36
  43.3029         46
  43.3215         36
  43.3400         43
  43.3586         40
  43.3772         46
  43.3958         50
  43.4143         37
  43.4329         46
  43.4515         34
  43.4701         55
  43.4886         72
  43.5072         72
  43.5258         58
  43.5444         46
  43.5629         44
  43.5815         41
  43.6001         57
  43.6187         60
  43.6372         51
  43.6558         41
  43.6744         43
  43.6930         41
  43.7116         42
  43.7301         32
  43.7487         35
  43.7673         33
  43.7859         43
  43.8044         36
  43.8230         33
  43.8416         24
  43.8602         38
  43.8787         37
  43.8973         36
  43.9159         42
  43.9345         32
  43.9530         39
  43.9716         47
  43.9902         50
  44.0088         39
  44.0273         51
  44.0459         29
  44.0645         46
  44.0831         30
  44.1016         34
  44.1202         32
  44.1388         44
  44.1574         46
  44.1759         36
  44.1945         43
  44.2131         24
  44.2317         35
  44.2502         47
  44.2688         29
  44.2874         22
  44.3060         49
  44.3245         28
  44.3431         27
  44.3617         32
  44.3803         28
  44.3988         25
  44.4174         30
  44.4360         34
  44.4546         35
  44.4732         36
  44.4917         33
  44.5103         38
  44.5289         39
  44.5475         41
  44.5660         33
  44.5846         36
  44.6032         42
  44.6218         41
  44.6403         39
  44.6589         36
  44.6775         34
  44.6961         45
  44.7146         49
  44.7332         37
  44.7518         33
  44.7704         29
  44.7889         37
  44.8075         31
  44.8261         33
  44.8447         39
  44.8632         41
  44.8818         29
  44.9004         35
  44.9190         35
  44.9375         36
  44.9561         35
  44.9747         34
  44.9933         35
  45.0118         38
  45.0304         34
  45.0490         43
  45.0676         35
  45.0861         33
  45.1047         27
  45.1233         34
  45.1419         25
  45.1604         43
  45.1790         34
  45.1976         36
  45.2162         44
  45.2347         33
  45.2533         37
  45.2719         39
  45.2905         32
  45.3091         46
  45.3276         35
  45.3462         42
  45.3648         44
  45.3834         43
  45.4019         28
  45.4205         30
  45.4391         37
  45.4577         43
  45.4762         40
  45.4948         35
  45.5134         28
  45.5320         43
  45.5505         33
  45.5691         30
  45.5877         36
  45.6063         33
  45.6248         38
  45.6434         30
  45.6620         44
  45.6806         35
  45.6991         29
  45.7177         38
  45.7363         42
  45.7549         36
  45.7734         37
  45.7920         35
  45.8106         42
  45.8292         36
  45.8477         33
  45.8663         39
  45.8849         28
  45.9035         38
  45.9220         23
  45.9406         28
  45.9592         31
  45.9778         40
  45.9963         35
  46.0149         47
  46.0335         35
  46.0521         30
  46.0707         35
  46.0892         31
  46.1078         31
  46.1264         32
  46.1450         24
  46.1635         37
  46.1821         36
  46.2007         36
  46.2193         34
  46.2378         38
  46.2564         18
  46.2750         26
  46.2936         31
  46.3121         26
  46.3307         31
  46.3493         44
  46.3679         26
  46.3864         26
  46.4050         31
  46.4236         45
  46.4422         29
  46.4607         37
  46.4793         30
  46.4979         24
  46.5165         36
  46.5350         28
  46.5536         32
  46.5722         24
  46.5908         33
  46.6093         28
  46.6279         28
  46.6465         27
  46.6651         26
  46.6836         34
  46.7022         35
  46.7208         39
  46.7394         35
  46.7579         27
  46.7765         30
  46.7951         30
  46.8137         32
  46.8323         34
  46.8508         28
  46.8694         36
  46.8880         29
  46.9066         29
  46.9251         32
  46.9437         33
  46.9623         34
  46.9809         38
  46.9994         20
  47.0180         36
  47.0366         32
  47.0552         51
  47.0737         35
  47.0923         32
  47.1109         40
  47.1295         37
  47.1480         34
  47.1666         40
  47.1852         28
  47.2038         32
  47.2223         28
  47.2409         31
  47.2595         30
  47.2781         36
  47.2966         35
  47.3152         40
  47.3338         32
  47.3524         34
  47.3709         35
  47.3895         39
  47.4081         30
  47.4267         27
  47.4452         29
  47.4638         24
  47.4824         30
  47.5010         34
  47.5195         32
  47.5381         33
  47.5567         32
  47.5753         29
  47.5939         30
  47.6124         35
  47.6310         26
  47.6496         23
  47.6682         46
  47.6867         31
  47.7053         45
  47.7239         27
  47.7425         34
  47.7610         35
  47.7796         27
  47.7982         32
  47.8168         30
  47.8353         24
  47.8539         33
  47.8725         29
  47.8911         29
  47.9096         28
  47.9282         38
  47.9468         28
  47.9654         24
  47.9839         19
  48.0025         25
  48.0211         40
  48.0397         37
  48.0582         38
  48.0768         28
  48.0954         25
  48.1140         33
  48.1325         35
  48.1511         32
  48.1697         41
  48.1883         43
  48.2068         33
  48.2254         30
  48.2440         32
  48.2626         30
  48.2811         25
  48.2997         30
  48.3183         32
  48.3369         36
  48.3555         35
  48.3740         37
  48.3926         29
  48.4112         27
  48.4298         37
  48.4483         44
  48.4669         30
  48.4855         32
  48.5041         35
  48.5226         34
  48.5412         27
  48.5598         22
  48.5784         32
  48.5969         36
  48.6155         32
  48.6341         29
  48.6527         35
  48.6712         27
  48.6898         32
  48.7084         39
  48.7270         28
  48.7455         35
  48.7641         27
  48.7827         42
  48.8013         35
  48.8198         38
  48.8384         32
  48.8570         30
  48.8756         33
  48.8941         36
  48.9127         33
  48.9313         43
  48.9499         57
  48.9684         49
  48.9870         43
  49.0056         43
  49.0242         39
  49.0427         37
  49.0613         30
  49.0799         55
  49.0985         46
  49.1171         27
  49.1356         42
  49.1542         42
  49.1728         27
  49.1914         34
  49.2099         32
  49.2285         21
  49.2471         34
  49.2657         32
  49.2842         34
  49.3028         37
  49.3214         25
  49.3400         43
  49.3585         40
  49.3771         32
  49.3957         33
  49.4143         22
  49.4328         32
  49.4514         24
  49.4700         18
  49.4886         29
  49.5071         28
  49.5257         36
  49.5443         33
  49.5629         37
  49.5814         29
  49.6000         29
  49.6186         39
  49.6372         40
  49.6557         25
  49.6743         43
  49.6929         30
  49.7115         22
  49.7300         23
  49.7486         29
  49.7672         30
  49.7858         27
  49.8043         28
  49.8229         28
  49.8415         29
  49.8601         34
  49.8786         24
  49.8972         40
  49.9158         31
  49.9344         35
  49.9530         28
  49.9715         26
  49.9901         35
  50.0087         28
  50.0273         35
  50.0458         28
  50.0644         34
  50.0830         34
  50.1016         21
  50.1201         32
  50.1387         36
  50.1573         39
  50.1759         33
  50.1944         35
  50.2130         34
  50.2316         49
  50.2502         36
  50.2687         39
  50.2873         31
  50.3059         25
  50.3245         33
  50.3430         30
  50.3616         36
  50.3802         25
  50.3988         29
  50.4173         27
  50.4359         31
  50.4545         36
  50.4731         25
  50.4916         36
  50.5102         25
  50.5288         35
  50.5474         26
  50.5659         29
  50.5845         25
  50.6031         31
  50.6217         34
  50.6402         33
  50.6588         25
  50.6774         30
  50.6960         30
  50.7146         30
  50.7331         27
  50.7517         29
  50.7703         31
  50.7889         20
  50.8074         25
  50.8260         32
  50.8446         33
  50.8632         37
  50.8817         39
  50.9003         26
  50.9189         20
  50.9375         26
  50.9560         31
  50.9746         28
  50.9932         28
  51.0118         25
  51.0303         25
  51.0489         32
  51.0675         37
  51.0861         29
  51.1046         32
  51.1232         26
  51.1418         32
  51.1604         29
  51.1789         25
  51.1975         28
  51.2161         34
  51.2347         21
  51.2532         32
  51.2718         18
  51.2904         25
  51.3090         33
  51.3275         31
  51.3461         32
  51.3647         33
  51.3833         35
  51.4018         34
  51.4204         30
  51.4390         38
  51.4576         37
  51.4762         34
  51.4947         37
  51.5133         39
  51.5319         22
  51.5505         37
  51.5690         36
  51.5876         52
  51.6062         40
  51.6248         23
  51.6433         31
  51.6619         27
  51.6805         39
  51.6991         34
  51.7176         35
  51.7362         37
  51.7548         39
  51.7734         30
  51.7919         30
  51.8105         36
  51.8291         47
  51.8477         38
  51.8662         43
  51.8848         34
  51.9034         32
  51.9220         40
  51.9405         29
  51.9591         28
  51.9777         34
  51.9963         27
  52.0148         25
  52.0334         33
  52.0520         24
  52.0706         32
  52.0891         24
  52.1077         28
  52.1263         28
  52.1449         30
  52.1634         24
  52.1820         25
  52.2006         26
  52.2192         36
  52.2378         20
  52.2563         25
  52.2749         27
  52.2935         24
  52.3121         22
  52.3306         33
  52.3492         28
  52.3678         27
  52.3864         26
  52.4049         33
  52.4235         31
  52.4421         36
  52.4607         30
  52.4792         23
  52.4978         33
  52.5164         26
  52.5350         26
  52.5535         29
  52.5721         27
  52.5907         31
  52.6093         33
  52.6278         32
  52.6464         40
  52.6650         36
  52.6836         23
  52.7021         29
  52.7207         33
  52.7393         31
  52.7579         35
  52.7764         36
  52.7950         27
  52.8136         28
  52.8322         31
  52.8507         29
  52.8693         30
  52.8879         28
  52.9065         26
  52.9250         33
  52.9436         25
  52.9622         36
  52.9808         28
  52.9994         39
  53.0179         39
  53.0365         32
  53.0551         29
  53.0737         31
  53.0922         28
  53.1108         24
  53.1294         34
  53.1480         28
  53.1665         31
  53.1851         22
  53.2037         27
  53.2223         33
  53.2408         31
  53.2594         31
  53.2780         26
  53.2966         28
  53.3151         33
  53.3337         17
  53.3523         24
  53.3709         25
  53.3894         26
  53.4080         33
  53.4266         35
  53.4452         35
  53.4637         32
  53.4823         33
  53.5009         27
  53.5195         24
  53.5380         37
  53.5566         22
  53.5752         23
  53.5938         24
  53.6123         30
  53.6309         24
  53.6495         30
  53.6681         26
  53.6866         26
  53.7052         31
  53.7238         30
  53.7424         33
  53.7610         25
  53.7795         30
  53.7981         34
  53.8167         31
  53.8353         22
  53.8538         20
  53.8724         34
  53.8910         22
  53.9096         43
  53.9281         34
  53.9467         36
  53.9653         36
  53.9839         27
  54.0024         48
  54.0210         38
  54.0396         35
  54.0582         29
  54.0767         29
  54.0953         42
  54.1139         28
  54.1325         35
  54.1510         38
  54.1696         32
  54.1882         30
  54.2068         23
  54.2253         32
  54.2439         21
  54.2625         28
  54.2811         32
  54.2996         28
  54.3182         29
  54.3368         25
  54.3554         27
  54.3739         30
  54.3925         24
  54.4111         38
  54.4297         25
  54.4482         22
  54.4668         23
  54.4854         29
  54.5040         29
  54.5225         33
  54.5411         32
  54.5597         31
  54.5783         20
  54.5969         21
  54.6154         26
  54.6340         24
  54.6526         21
  54.6712         24
  54.6897         20
  54.7083         36
  54.7269         21
  54.7455         34
  54.7640         31
  54.7826         32
  54.8012         26
  54.8198         31
  54.8383         24
  54.8569         30
  54.8755         19
  54.8941         21
  54.9126         26
  54.9312         28
  54.9498         25
  54.9684         28
  54.9869         30
  55.0055         26
  55.0241         25
  55.0427         38
  55.0612         27
  55.0798         23
  55.0984         31
  55.1170         28
  55.1355         23
  55.1541         19
  55.1727         27
  55.1913         31
  55.2098         16
  55.2284         20
  55.2470         28
  55.2656         25
  55.2841         26
  55.3027         27
  55.3213         20
  55.3399         23
  55.3585         28
  55.3770         25
  55.3956         21
  55.4142         24
  55.4328         32
  55.4513         35
  55.4699         23
  55.4885         33
  55.5071         22
  55.5256         28
  55.5442         39
  55.5628         22
  55.5814         31
  55.5999         33
  55.6185         18
  55.6371         26
  55.6557         25
  55.6742         28
  55.6928         19
  55.7114         30
  55.7300         32
  55.7485         30
  55.7671         27
  55.7857         35
  55.8043         27
  55.8228         34
  55.8414         30
  55.8600         31
  55.8786         26
  55.8971         29
  55.9157         36
  55.9343         32
  55.9529         27
  55.9714         41
  55.9900         27
  56.0086         30
  56.0272         36
  56.0457         29
  56.0643         30
  56.0829         29
  56.1015         22
  56.1201         35
  56.1386         34
  56.1572         27
  56.1758         20
  56.1944         42
  56.2129         25
  56.2315         42
  56.2501         28
  56.2687         23
  56.2872         29
  56.3058         21
  56.3244         29
  56.3430         28
  56.3615         29
  56.3801         21
  56.3987         31
  56.4173         28
  56.4358         36
  56.4544         29
  56.4730         30
  56.4916         30
  56.5101         33
  56.5287         23
  56.5473         29
  56.5659         22
  56.5844         39
  56.6030         16
  56.6216         30
  56.6402         27
  56.6587         26
  56.6773         29
  56.6959         25
  56.7145         38
  56.7330         24
  56.7516         30
  56.7702         27
  56.7888         22
  56.8073         23
  56.8259         31
  56.8445         33
  56.8631         30
  56.8817         30
  56.9002         21
  56.9188         23
  56.9374         43
  56.9560         26
  56.9745         26
  56.9931         33
  57.0117         26
  57.0303         33
  57.0488         29
  57.0674         18
  57.0860         26
  57.1046         32
  57.1231         27
  57.1417         35
  57.1603         23
  57.1789         28
  57.1974         18
  57.2160         36
  57.2346         28
  57.2532         28
  57.2717         20
  57.2903         22
  57.3089         32
  57.3275         29
  57.3460         27
  57.3646         23
  57.3832         32
  57.4018         23
  57.4203         23
  57.4389         26
  57.4575         21
  57.4761         27
  57.4946         23
  57.5132         25
  57.5318         18
  57.5504         29
  57.5689         27
  57.5875         24
  57.6061         29
  57.6247         30
  57.6433         29
  57.6618         24
  57.6804         38
  57.6990         28
  57.7176         25
  57.7361         26
  57.7547         34
  57.7733         32
  57.7919         26
  57.8104         29
  57.8290         34
  57.8476         27
  57.8662         37
  57.8847         22
  57.9033         26
  57.9219         25
  57.9405         30
  57.9590         36
  57.9776         34
  57.9962         32
  58.0148         34
  58.0333         37
  58.0519         25
  58.0705         24
  58.0891         29
  58.1076         20
  58.1262         31
  58.1448         35
  58.1634         31
  58.1819         29
  58.2005         21
  58.2191         19
  58.2377         22
  58.2562         23
  58.2748         33
  58.2934         37
  58.3120         28
  58.3305         27
  58.3491         32
  58.3677         22
  58.3863         25
  58.4049         29
  58.4234         25
  58.4420         29
  58.4606         23
  58.4792         29
  58.4977         26
  58.5163         34
  58.5349         27
  58.5535         21
  58.5720         25
  58.5906         26
  58.6092         36
  58.6278         29
  58.6463         18
  58.6649         26
  58.6835         21
  58.7021         29
  58.7206         35
  58.7392         32
  58.7578         35
  58.7764         26
  58.7949         29
  58.8135         30
  58.8321         30
  58.8507         36
  58.8692         26
  58.8878         30
  58.9064         30
  58.9250         24
  58.9435         27
  58.9621         26
  58.9807         34
  58.9993         27
  59.0178         41
  59.0364         29
  59.0550         32
  59.0736         25
  59.0921         25
  59.1107         37
  59.1293         28
  59.1479         40
  59.1664         27
  59.1850         23
  59.2036         26
  59.2222         26
  59.2408         29
  59.2593         27
  59.2779         25
  59.2965         29
  59.3151         25
  59.3336         27
  59.3522         28
  59.3708         34
  59.3894         36
  59.4079         25
  59.4265         26
  59.4451         25
  59.4637         34
  59.4822         20
  59.5008         25
  59.5194         26
  59.5380         30
  59.5565         28
  59.5751         25
  59.5937         24
  59.6123         29
  59.6308         21
  59.6494         24
  59.6680         17
  59.6866         20
  59.7051         29
  59.7237         39
  59.7423         31
  59.7609         18
  59.7794         31
  59.7980         25
  59.8166         32
  59.8352         23
  59.8537         36
  59.8723         31
  59.8909         33
  59.9095         25
  59.9280         22
  59.9466         19
  59.9652         35
  59.9838         36
  60.0024         30
