; (content of file Y:\Sam\Apurva-07-20-2022\puck4\ML_20220718_43_SJD_4_LaB6-2min.raw)
_FILEVERSION = 3
_SAMPLE = ML_20220718_43_SJD_4_LaB6-2min
_+SAMPLE = 
_SITE = USA
_USER = Administrator
_GONIOMETER_CODE = 20
; Goniometer : D8 theta/2theta, stage : Unknown
_ATTACHMENTS_CODE = 0
_GONIOMETER_RADIUS = 200.5
_FIXED_DIVSLIT = 0.6
_FIXED_SAMPLESLIT = 0
_SOLLER_SLITS = 2
_FIXED_DETSLIT = 9.55
_MONOCHROMATOR = 0
; Incident beam monochromator : None
_SOLLER_SLITS_2 = N
_THIN_FILM = N
_BETA_FILTER = Y
_FIXED_ANTISLIT = 5.89
_ANALYZER_CODE = 0
; Received beam analyzer : None
_DATEMEASURED = "26-Jul-2022 12:10:54"
_WL_UNIT = A
_WL1 = 1.5406
_WL2 = 1.54439
_WL3 = 1.39222
_WLRATIO = 0.5
_ANODE = Cu
_V4_INF_CREATOR = XRDWizard
_V4_INF_CREATOR_VERSION = V2.9.0.22
_V4_INF_WIZARD_VERSION = V2.9.0.22
_V4_INF_WIZARD_ADDINS = V2.9.0.22
_V4_INF_WIZARD_DOCTYPE = XRD
_V4_INF_OSUSER = McQueenLab
_V4_INF_USER = Administrator
_V4_INF_SITE = USA
_V4_INF_SAMPLEID = ML_20220718_43_SJD_4_LaB6-2min

; Data for range 1
_DRIVE = COUPLED
_STEPTIME = 5.64
_STEPSIZE = 0.0185756
_STEPMODE = C
_START = 5
_THETA = 2.5
_2THETA = 5
_KHI = 0
_PHI = 0
_X = 0
_Y = 0
_Z = 0
_DETECTOR = 5
; Detector type : Unknown
_DETECTORSLIT = unkn
_AUX1 = 0
_AUX2 = 0
_AUX3 = 0
_TIMESTARTED = 15
_TEMP_RATE = -1
_TEMP_DELAY = -1
_KV = 40
_MA = 40
_RANGE_WL = 1.5406
_3DPLANE = 0
_V4_ADDITIONALDETECTOR = 257
_V4_PSD2THETA = 3.3682
_V4_PSDCHANNEL1 = 0
_V4_PSDAPERTURE = 12.68
_V4_PSDTYPE = 5
_V4_PSDFIXED = 0
_V4_COUNTERS_MASK = 4096
_V4_DRIVES_MASK = 0
_V4_ENCODERS_MASK = 0
_2THETACOUNTS = 1
; 2THETA  PSD
   5.0000        129
   5.0186        136
   5.0372        123
   5.0557        136
   5.0743        127
   5.0929        137
   5.1115        122
   5.1300        131
   5.1486        105
   5.1672        127
   5.1858        120
   5.2043        111
   5.2229        113
   5.2415        100
   5.2601        127
   5.2786        121
   5.2972         99
   5.3158        112
   5.3344        105
   5.3529        117
   5.3715        117
   5.3901        121
   5.4087        117
   5.4272        119
   5.4458        108
   5.4644         96
   5.4830        108
   5.5015        116
   5.5201        116
   5.5387        129
   5.5573        123
   5.5758        109
   5.5944        113
   5.6130         94
   5.6316        103
   5.6501        117
   5.6687         97
   5.6873        110
   5.7059        105
   5.7244        107
   5.7430        100
   5.7616        107
   5.7802        116
   5.7988         99
   5.8173         96
   5.8359         95
   5.8545         99
   5.8731        107
   5.8916        105
   5.9102         96
   5.9288        105
   5.9474        106
   5.9659        110
   5.9845         91
   6.0031        111
   6.0217         87
   6.0402         95
   6.0588         87
   6.0774        111
   6.0960         91
   6.1145         95
   6.1331         93
   6.1517         90
   6.1703         97
   6.1888         91
   6.2074         99
   6.2260        103
   6.2446        104
   6.2631         77
   6.2817        118
   6.3003         95
   6.3189         91
   6.3374         96
   6.3560         96
   6.3746         92
   6.3932         93
   6.4117        101
   6.4303         98
   6.4489         89
   6.4675         89
   6.4860         98
   6.5046         92
   6.5232         65
   6.5418         90
   6.5604         79
   6.5789         95
   6.5975         76
   6.6161         89
   6.6347         98
   6.6532        111
   6.6718        104
   6.6904         77
   6.7090         87
   6.7275         80
   6.7461         79
   6.7647         86
   6.7833         86
   6.8018         83
   6.8204         81
   6.8390         83
   6.8576         78
   6.8761         72
   6.8947         77
   6.9133         97
   6.9319         83
   6.9504         95
   6.9690         71
   6.9876         75
   7.0062         82
   7.0247         75
   7.0433         93
   7.0619         95
   7.0805         79
   7.0990         96
   7.1176         76
   7.1362         84
   7.1548         78
   7.1733         87
   7.1919         89
   7.2105         75
   7.2291         83
   7.2476         76
   7.2662         82
   7.2848         76
   7.3034         85
   7.3220         71
   7.3405         77
   7.3591         72
   7.3777         77
   7.3963         71
   7.4148         70
   7.4334         95
   7.4520         76
   7.4706         94
   7.4891         66
   7.5077         86
   7.5263         81
   7.5449         80
   7.5634         73
   7.5820        107
   7.6006         83
   7.6192         84
   7.6377         89
   7.6563         86
   7.6749         85
   7.6935         89
   7.7120         87
   7.7306         63
   7.7492         79
   7.7678         85
   7.7863         77
   7.8049         83
   7.8235        102
   7.8421        102
   7.8606         96
   7.8792         86
   7.8978         79
   7.9164         85
   7.9349         95
   7.9535         85
   7.9721         88
   7.9907         91
   8.0092        100
   8.0278         85
   8.0464         98
   8.0650         95
   8.0835         96
   8.1021         80
   8.1207         94
   8.1393         95
   8.1579        100
   8.1764        117
   8.1950         84
   8.2136        101
   8.2322        108
   8.2507         82
   8.2693         94
   8.2879         82
   8.3065        100
   8.3250         85
   8.3436        101
   8.3622         99
   8.3808         96
   8.3993         82
   8.4179         88
   8.4365        107
   8.4551        101
   8.4736         98
   8.4922         95
   8.5108        100
   8.5294        100
   8.5479        109
   8.5665        106
   8.5851        103
   8.6037         92
   8.6222         90
   8.6408         96
   8.6594        100
   8.6780         91
   8.6965         96
   8.7151        114
   8.7337         98
   8.7523        119
   8.7708        109
   8.7894        111
   8.8080         89
   8.8266        108
   8.8451        111
   8.8637        124
   8.8823        106
   8.9009         86
   8.9195        124
   8.9380         90
   8.9566        101
   8.9752        106
   8.9938        100
   9.0123        100
   9.0309        115
   9.0495         97
   9.0681        106
   9.0866        102
   9.1052        102
   9.1238        107
   9.1424         91
   9.1609        104
   9.1795        116
   9.1981        108
   9.2167        114
   9.2352        132
   9.2538        111
   9.2724        115
   9.2910         96
   9.3095        110
   9.3281        101
   9.3467        114
   9.3653        124
   9.3838        114
   9.4024        115
   9.4210        144
   9.4396        105
   9.4581        114
   9.4767        108
   9.4953        117
   9.5139        106
   9.5324        109
   9.5510        114
   9.5696        113
   9.5882        123
   9.6067        104
   9.6253        120
   9.6439        123
   9.6625        101
   9.6811         99
   9.6996        103
   9.7182        114
   9.7368        109
   9.7554        112
   9.7739        100
   9.7925        112
   9.8111        122
   9.8297        139
   9.8482        119
   9.8668        111
   9.8854        130
   9.9040        118
   9.9225        107
   9.9411        110
   9.9597        136
   9.9783        108
   9.9968         90
  10.0154        116
  10.0340        132
  10.0526        126
  10.0711        124
  10.0897        124
  10.1083        120
  10.1269        121
  10.1454        108
  10.1640        122
  10.1826        142
  10.2012        124
  10.2197        109
  10.2383        109
  10.2569        124
  10.2755        115
  10.2940        128
  10.3126        118
  10.3312        125
  10.3498        117
  10.3683        118
  10.3869        125
  10.4055        127
  10.4241        103
  10.4427        127
  10.4612        131
  10.4798        110
  10.4984         99
  10.5170        114
  10.5355        121
  10.5541        128
  10.5727        121
  10.5913        116
  10.6098        103
  10.6284        141
  10.6470        104
  10.6656        132
  10.6841        108
  10.7027        112
  10.7213        132
  10.7399        116
  10.7584        135
  10.7770        126
  10.7956        121
  10.8142        109
  10.8327        121
  10.8513        123
  10.8699        120
  10.8885        123
  10.9070        129
  10.9256        107
  10.9442        110
  10.9628        125
  10.9813        130
  10.9999        108
  11.0185        116
  11.0371        132
  11.0556        118
  11.0742        117
  11.0928        116
  11.1114        113
  11.1299        112
  11.1485        114
  11.1671        102
  11.1857        133
  11.2043        117
  11.2228        114
  11.2414        134
  11.2600        121
  11.2786        121
  11.2971        114
  11.3157        142
  11.3343        127
  11.3529        108
  11.3714        148
  11.3900        122
  11.4086        121
  11.4272        109
  11.4457        119
  11.4643        108
  11.4829        123
  11.5015        117
  11.5200        123
  11.5386        106
  11.5572        124
  11.5758        126
  11.5943        128
  11.6129        103
  11.6315        115
  11.6501        128
  11.6686        103
  11.6872        120
  11.7058        144
  11.7244        124
  11.7429        105
  11.7615        114
  11.7801        103
  11.7987        120
  11.8172        118
  11.8358        119
  11.8544        125
  11.8730        105
  11.8915        113
  11.9101        122
  11.9287        113
  11.9473        103
  11.9659        117
  11.9844        120
  12.0030        115
  12.0216        106
  12.0402         98
  12.0587        122
  12.0773        110
  12.0959        116
  12.1145        106
  12.1330        115
  12.1516        114
  12.1702         94
  12.1888        115
  12.2073        103
  12.2259        126
  12.2445        108
  12.2631        102
  12.2816        106
  12.3002        113
  12.3188        107
  12.3374        104
  12.3559        113
  12.3745         98
  12.3931        120
  12.4117         99
  12.4302        101
  12.4488        114
  12.4674        114
  12.4860        109
  12.5045        104
  12.5231         99
  12.5417        110
  12.5603         97
  12.5788        119
  12.5974         97
  12.6160        104
  12.6346        116
  12.6531        100
  12.6717        110
  12.6903        106
  12.7089         87
  12.7274         97
  12.7460        117
  12.7646        111
  12.7832         97
  12.8018         91
  12.8203        121
  12.8389        109
  12.8575        111
  12.8761        105
  12.8946        111
  12.9132        120
  12.9318        112
  12.9504        112
  12.9689         97
  12.9875        109
  13.0061        102
  13.0247        109
  13.0432        105
  13.0618        100
  13.0804         79
  13.0990        108
  13.1175        104
  13.1361        102
  13.1547         92
  13.1733        101
  13.1918         83
  13.2104         97
  13.2290        110
  13.2476        105
  13.2661        107
  13.2847        101
  13.3033        111
  13.3219         88
  13.3404        111
  13.3590         95
  13.3776         91
  13.3962        120
  13.4147        100
  13.4333        116
  13.4519         97
  13.4705        101
  13.4890        108
  13.5076        109
  13.5262         91
  13.5448        101
  13.5634         98
  13.5819        103
  13.6005         98
  13.6191         98
  13.6377         83
  13.6562        106
  13.6748         90
  13.6934         93
  13.7120         86
  13.7305         87
  13.7491         86
  13.7677        106
  13.7863         97
  13.8048         93
  13.8234         82
  13.8420         90
  13.8606         97
  13.8791         95
  13.8977        105
  13.9163         98
  13.9349        103
  13.9534         79
  13.9720         90
  13.9906        102
  14.0092         81
  14.0277         99
  14.0463         93
  14.0649         69
  14.0835         92
  14.1020         79
  14.1206         87
  14.1392         99
  14.1578        104
  14.1763         89
  14.1949        105
  14.2135         90
  14.2321         74
  14.2506         92
  14.2692         89
  14.2878         86
  14.3064         88
  14.3250        100
  14.3435         83
  14.3621         85
  14.3807         98
  14.3993         87
  14.4178         77
  14.4364         74
  14.4550         75
  14.4736        107
  14.4921         87
  14.5107         79
  14.5293         94
  14.5479         95
  14.5664         87
  14.5850         93
  14.6036         89
  14.6222         81
  14.6407         84
  14.6593         95
  14.6779         76
  14.6965         83
  14.7150         84
  14.7336         89
  14.7522         74
  14.7708         83
  14.7893         99
  14.8079         88
  14.8265         70
  14.8451         83
  14.8636         73
  14.8822         70
  14.9008         87
  14.9194         75
  14.9379         80
  14.9565         80
  14.9751         71
  14.9937         83
  15.0122         66
  15.0308         80
  15.0494         83
  15.0680         87
  15.0866         94
  15.1051         92
  15.1237         87
  15.1423         76
  15.1609         70
  15.1794         73
  15.1980         71
  15.2166         69
  15.2352         94
  15.2537         81
  15.2723         84
  15.2909         83
  15.3095         73
  15.3280         81
  15.3466         89
  15.3652         72
  15.3838         88
  15.4023         76
  15.4209         85
  15.4395         93
  15.4581         66
  15.4766         82
  15.4952         99
  15.5138         86
  15.5324         67
  15.5509         89
  15.5695         62
  15.5881         94
  15.6067         75
  15.6252         68
  15.6438         72
  15.6624         79
  15.6810         77
  15.6995         69
  15.7181         79
  15.7367         74
  15.7553         82
  15.7738        104
  15.7924         71
  15.8110         69
  15.8296         77
  15.8482         81
  15.8667         86
  15.8853         84
  15.9039         78
  15.9225         71
  15.9410         96
  15.9596         82
  15.9782         86
  15.9968         77
  16.0153         80
  16.0339         75
  16.0525         65
  16.0711         80
  16.0896         80
  16.1082         61
  16.1268         90
  16.1454         96
  16.1639         79
  16.1825         84
  16.2011         73
  16.2197         82
  16.2382        103
  16.2568         78
  16.2754         60
  16.2940         83
  16.3125         70
  16.3311         76
  16.3497         61
  16.3683         75
  16.3868         90
  16.4054         67
  16.4240         74
  16.4426         68
  16.4611         68
  16.4797         70
  16.4983         78
  16.5169         68
  16.5354         81
  16.5540         85
  16.5726         78
  16.5912         72
  16.6097         93
  16.6283         77
  16.6469         81
  16.6655         73
  16.6841         76
  16.7026         89
  16.7212         79
  16.7398         79
  16.7584         78
  16.7769         80
  16.7955         82
  16.8141         79
  16.8327         83
  16.8512         92
  16.8698         76
  16.8884         86
  16.9070         79
  16.9255         77
  16.9441         90
  16.9627         67
  16.9813         97
  16.9998         99
  17.0184         82
  17.0370         93
  17.0556         72
  17.0741         98
  17.0927         73
  17.1113         75
  17.1299         78
  17.1484         82
  17.1670         88
  17.1856         91
  17.2042         92
  17.2227         67
  17.2413         74
  17.2599         67
  17.2785         93
  17.2970         71
  17.3156         87
  17.3342         89
  17.3528         61
  17.3713         76
  17.3899         69
  17.4085         73
  17.4271         91
  17.4457         72
  17.4642         74
  17.4828         83
  17.5014         78
  17.5200         83
  17.5385         78
  17.5571         90
  17.5757        100
  17.5943         83
  17.6128        104
  17.6314         84
  17.6500         80
  17.6686         73
  17.6871         86
  17.7057         87
  17.7243         95
  17.7429         70
  17.7614         80
  17.7800         87
  17.7986         82
  17.8172         78
  17.8357         80
  17.8543         77
  17.8729        113
  17.8915         80
  17.9100         79
  17.9286         76
  17.9472         94
  17.9658         74
  17.9843         66
  18.0029         70
  18.0215        101
  18.0401         83
  18.0586         84
  18.0772         69
  18.0958         67
  18.1144         76
  18.1329         91
  18.1515         82
  18.1701         79
  18.1887         75
  18.2073         71
  18.2258         88
  18.2444         80
  18.2630         83
  18.2816         83
  18.3001         85
  18.3187         65
  18.3373         78
  18.3559         79
  18.3744         94
  18.3930         82
  18.4116         72
  18.4302         73
  18.4487         77
  18.4673         77
  18.4859         99
  18.5045         76
  18.5230         92
  18.5416         95
  18.5602         88
  18.5788         78
  18.5973         68
  18.6159         88
  18.6345         81
  18.6531         79
  18.6716         80
  18.6902         94
  18.7088         74
  18.7274         94
  18.7459         93
  18.7645         86
  18.7831         86
  18.8017         96
  18.8202         94
  18.8388         69
  18.8574         91
  18.8760         84
  18.8945         73
  18.9131         96
  18.9317         81
  18.9503         74
  18.9689         96
  18.9874         68
  19.0060         83
  19.0246         85
  19.0432         83
  19.0617         77
  19.0803         94
  19.0989         79
  19.1175         83
  19.1360         84
  19.1546         81
  19.1732         85
  19.1918         97
  19.2103         72
  19.2289         86
  19.2475         91
  19.2661         84
  19.2846         99
  19.3032         75
  19.3218         86
  19.3404         99
  19.3589         74
  19.3775         87
  19.3961         76
  19.4147         75
  19.4332         80
  19.4518         95
  19.4704         82
  19.4890         74
  19.5075         77
  19.5261         94
  19.5447         81
  19.5633         86
  19.5818         84
  19.6004         98
  19.6190         85
  19.6376         83
  19.6561         89
  19.6747         88
  19.6933         96
  19.7119         75
  19.7305         86
  19.7490         74
  19.7676         85
  19.7862         94
  19.8048         91
  19.8233         81
  19.8419         77
  19.8605         66
  19.8791         89
  19.8976         73
  19.9162         71
  19.9348         81
  19.9534         90
  19.9719        107
  19.9905         64
  20.0091         67
  20.0277         93
  20.0462        102
  20.0648         84
  20.0834         99
  20.1020         77
  20.1205         68
  20.1391         95
  20.1577         99
  20.1763         90
  20.1948         86
  20.2134         87
  20.2320         89
  20.2506         82
  20.2691        104
  20.2877         86
  20.3063         86
  20.3249         84
  20.3434         92
  20.3620         96
  20.3806        103
  20.3992         72
  20.4177        115
  20.4363         98
  20.4549         94
  20.4735         84
  20.4921         87
  20.5106         88
  20.5292         79
  20.5478         86
  20.5664         97
  20.5849         87
  20.6035        104
  20.6221         98
  20.6407         97
  20.6592        100
  20.6778         94
  20.6964        102
  20.7150         90
  20.7335        103
  20.7521        104
  20.7707        108
  20.7893         82
  20.8078         86
  20.8264         97
  20.8450         92
  20.8636         95
  20.8821         99
  20.9007        104
  20.9193        102
  20.9379         93
  20.9564         97
  20.9750         81
  20.9936         95
  21.0122         97
  21.0307        104
  21.0493         89
  21.0679         95
  21.0865        112
  21.1050        110
  21.1236        111
  21.1422        113
  21.1608        106
  21.1793        138
  21.1979        131
  21.2165        163
  21.2351        156
  21.2537        162
  21.2722        145
  21.2908        158
  21.3094        165
  21.3280        189
  21.3465        259
  21.3651        302
  21.3837        197
  21.4023        174
  21.4208        167
  21.4394        133
  21.4580        121
  21.4766         96
  21.4951        108
  21.5137         98
  21.5323        102
  21.5509         93
  21.5694         93
  21.5880        108
  21.6066         88
  21.6252        109
  21.6437        106
  21.6623         96
  21.6809        107
  21.6995         88
  21.7180        106
  21.7366        107
  21.7552        104
  21.7738         87
  21.7923        105
  21.8109         86
  21.8295        100
  21.8481         87
  21.8666        107
  21.8852        106
  21.9038         82
  21.9224        110
  21.9409        108
  21.9595         90
  21.9781         87
  21.9967        111
  22.0152         90
  22.0338         81
  22.0524         91
  22.0710        105
  22.0896        102
  22.1081         90
  22.1267        109
  22.1453        100
  22.1639        104
  22.1824         85
  22.2010         91
  22.2196         93
  22.2382        102
  22.2567         91
  22.2753         97
  22.2939         84
  22.3125         88
  22.3310        106
  22.3496         99
  22.3682        101
  22.3868        103
  22.4053        134
  22.4239        106
  22.4425         94
  22.4611         95
  22.4796         81
  22.4982         99
  22.5168         90
  22.5354        100
  22.5539         91
  22.5725         94
  22.5911        104
  22.6097         97
  22.6282         96
  22.6468        103
  22.6654        104
  22.6840         82
  22.7025         93
  22.7211        108
  22.7397        109
  22.7583         96
  22.7768         95
  22.7954        100
  22.8140        111
  22.8326         82
  22.8512         92
  22.8697         97
  22.8883         95
  22.9069         91
  22.9255        109
  22.9440         96
  22.9626        120
  22.9812        104
  22.9998        103
  23.0183        103
  23.0369        115
  23.0555        106
  23.0741        102
  23.0926         97
  23.1112        108
  23.1298        106
  23.1484        112
  23.1669        103
  23.1855         81
  23.2041         99
  23.2227        104
  23.2412         92
  23.2598         97
  23.2784        105
  23.2970        109
  23.3155         81
  23.3341         98
  23.3527        110
  23.3713        112
  23.3898         90
  23.4084         94
  23.4270        109
  23.4456         88
  23.4641         93
  23.4827        113
  23.5013         90
  23.5199         99
  23.5384        100
  23.5570         91
  23.5756        102
  23.5942        101
  23.6128        104
  23.6313        101
  23.6499        115
  23.6685        100
  23.6871         95
  23.7056        106
  23.7242        105
  23.7428        108
  23.7614        102
  23.7799        105
  23.7985         98
  23.8171         99
  23.8357        109
  23.8542        100
  23.8728         92
  23.8914         91
  23.9100        100
  23.9285         91
  23.9471        116
  23.9657         91
  23.9843         95
  24.0028        102
  24.0214        110
  24.0400        102
  24.0586         96
  24.0771        105
  24.0957         84
  24.1143        107
  24.1329        112
  24.1514        109
  24.1700         90
  24.1886        105
  24.2072         91
  24.2257        105
  24.2443         86
  24.2629        114
  24.2815        118
  24.3000        109
  24.3186        114
  24.3372         92
  24.3558        109
  24.3744        116
  24.3929        113
  24.4115         99
  24.4301         90
  24.4487        106
  24.4672         94
  24.4858        103
  24.5044         94
  24.5230         92
  24.5415         99
  24.5601         98
  24.5787         90
  24.5973        116
  24.6158         93
  24.6344         90
  24.6530         96
  24.6716         97
  24.6901        107
  24.7087         92
  24.7273        100
  24.7459         92
  24.7644        112
  24.7830         89
  24.8016         85
  24.8202        113
  24.8387         82
  24.8573         98
  24.8759         86
  24.8945         80
  24.9130         95
  24.9316        106
  24.9502         93
  24.9688        118
  24.9873        107
  25.0059        107
  25.0245        117
  25.0431        107
  25.0616         89
  25.0802         99
  25.0988        106
  25.1174         87
  25.1360        102
  25.1545         82
  25.1731         92
  25.1917        102
  25.2103        103
  25.2288         96
  25.2474         99
  25.2660         93
  25.2846        101
  25.3031         91
  25.3217         89
  25.3403         87
  25.3589         97
  25.3774        104
  25.3960         97
  25.4146         99
  25.4332        104
  25.4517         91
  25.4703        122
  25.4889         94
  25.5075         87
  25.5260         92
  25.5446         90
  25.5632         78
  25.5818         90
  25.6003         91
  25.6189        109
  25.6375        109
  25.6561        102
  25.6746         86
  25.6932        114
  25.7118         98
  25.7304        106
  25.7489         94
  25.7675         89
  25.7861        113
  25.8047         95
  25.8232         96
  25.8418         98
  25.8604         79
  25.8790         90
  25.8976         76
  25.9161         99
  25.9347         87
  25.9533         87
  25.9719         85
  25.9904        101
  26.0090         93
  26.0276         96
  26.0462         98
  26.0647         96
  26.0833         89
  26.1019        110
  26.1205        103
  26.1390         89
  26.1576         94
  26.1762         88
  26.1948         91
  26.2133        104
  26.2319        100
  26.2505         93
  26.2691         89
  26.2876         84
  26.3062         81
  26.3248         92
  26.3434         82
  26.3619         78
  26.3805        105
  26.3991         82
  26.4177         84
  26.4362         86
  26.4548         77
  26.4734         89
  26.4920         94
  26.5105        105
  26.5291         92
  26.5477         86
  26.5663         89
  26.5848        114
  26.6034         96
  26.6220         86
  26.6406        102
  26.6591         90
  26.6777         90
  26.6963        104
  26.7149         97
  26.7335         91
  26.7520        105
  26.7706         88
  26.7892        106
  26.8078         74
  26.8263        106
  26.8449         87
  26.8635        100
  26.8821         87
  26.9006         98
  26.9192         88
  26.9378         85
  26.9564         85
  26.9749         87
  26.9935         95
  27.0121         92
  27.0307         87
  27.0492         91
  27.0678         85
  27.0864         97
  27.1050         98
  27.1235         94
  27.1421         81
  27.1607        106
  27.1793        116
  27.1978        121
  27.2164        136
  27.2350        107
  27.2536        112
  27.2721         98
  27.2907        119
  27.3093         94
  27.3279        108
  27.3464         81
  27.3650         99
  27.3836         99
  27.4022         80
  27.4207         77
  27.4393        102
  27.4579        105
  27.4765        105
  27.4951         95
  27.5136         81
  27.5322         92
  27.5508         81
  27.5694        104
  27.5879         89
  27.6065         71
  27.6251         87
  27.6437         84
  27.6622         90
  27.6808         89
  27.6994        109
  27.7180         87
  27.7365         83
  27.7551         73
  27.7737         81
  27.7923         92
  27.8108         88
  27.8294        106
  27.8480         87
  27.8666         99
  27.8851         88
  27.9037         78
  27.9223         98
  27.9409         84
  27.9594         85
  27.9780         73
  27.9966         94
  28.0152         79
  28.0337         94
  28.0523         96
  28.0709         66
  28.0895         83
  28.1080         89
  28.1266         98
  28.1452         77
  28.1638         77
  28.1823         79
  28.2009         78
  28.2195         97
  28.2381         70
  28.2567         76
  28.2752         91
  28.2938         67
  28.3124         67
  28.3310         88
  28.3495        100
  28.3681         79
  28.3867         83
  28.4053         86
  28.4238         74
  28.4424         84
  28.4610         85
  28.4796         77
  28.4981         81
  28.5167         83
  28.5353         79
  28.5539         85
  28.5724         91
  28.5910         82
  28.6096         75
  28.6282         84
  28.6467         82
  28.6653         87
  28.6839         83
  28.7025         81
  28.7210         75
  28.7396         78
  28.7582         80
  28.7768         71
  28.7953         84
  28.8139        103
  28.8325         87
  28.8511         82
  28.8696         85
  28.8882         89
  28.9068         85
  28.9254         74
  28.9439         59
  28.9625         77
  28.9811         91
  28.9997         93
  29.0183         91
  29.0368         76
  29.0554         60
  29.0740         82
  29.0926         73
  29.1111         76
  29.1297        102
  29.1483         94
  29.1669         92
  29.1854         79
  29.2040         69
  29.2226         76
  29.2412         73
  29.2597         85
  29.2783         65
  29.2969         89
  29.3155         82
  29.3340         96
  29.3526         85
  29.3712         73
  29.3898         77
  29.4083         81
  29.4269         71
  29.4455         82
  29.4641         68
  29.4826         76
  29.5012         77
  29.5198         84
  29.5384         81
  29.5569         90
  29.5755         74
  29.5941         80
  29.6127         71
  29.6312         75
  29.6498         79
  29.6684         86
  29.6870         79
  29.7055         84
  29.7241         81
  29.7427         95
  29.7613         88
  29.7799         75
  29.7984         75
  29.8170         68
  29.8356         74
  29.8542         65
  29.8727         72
  29.8913         75
  29.9099         89
  29.9285         67
  29.9470         94
  29.9656         75
  29.9842         72
  30.0028         76
  30.0213         88
  30.0399         80
  30.0585         83
  30.0771         88
  30.0956         75
  30.1142         74
  30.1328         87
  30.1514         63
  30.1699         73
  30.1885         85
  30.2071         82
  30.2257         95
  30.2442         81
  30.2628         75
  30.2814         96
  30.3000         57
  30.3185         90
  30.3371        108
  30.3557        118
  30.3743        155
  30.3928        193
  30.4114        150
  30.4300        122
  30.4486        120
  30.4671        126
  30.4857        106
  30.5043         73
  30.5229         72
  30.5415         86
  30.5600         94
  30.5786         79
  30.5972         79
  30.6158         68
  30.6343         74
  30.6529         79
  30.6715         69
  30.6901         84
  30.7086         79
  30.7272         69
  30.7458         63
  30.7644         69
  30.7829         74
  30.8015         89
  30.8201         64
  30.8387         79
  30.8572         72
  30.8758         64
  30.8944         76
  30.9130         77
  30.9315         71
  30.9501         75
  30.9687         70
  30.9873         69
  31.0058         69
  31.0244         72
  31.0430         73
  31.0616         74
  31.0801         67
  31.0987         61
  31.1173         79
  31.1359         64
  31.1544         75
  31.1730         62
  31.1916         60
  31.2102         75
  31.2287         74
  31.2473         82
  31.2659         66
  31.2845         70
  31.3030         69
  31.3216         71
  31.3402         66
  31.3588         76
  31.3774         77
  31.3959         62
  31.4145         66
  31.4331         71
  31.4517         66
  31.4702         66
  31.4888         75
  31.5074         76
  31.5260         81
  31.5445         51
  31.5631         57
  31.5817         92
  31.6003         69
  31.6188         78
  31.6374         63
  31.6560         74
  31.6746         70
  31.6931         58
  31.7117         66
  31.7303         56
  31.7489         62
  31.7674         57
  31.7860         63
  31.8046         57
  31.8232         63
  31.8417         75
  31.8603         47
  31.8789         72
  31.8975         55
  31.9160         48
  31.9346         75
  31.9532         77
  31.9718         70
  31.9903         67
  32.0089         54
  32.0275         52
  32.0461         74
  32.0646         70
  32.0832         52
  32.1018         77
  32.1204         58
  32.1390         67
  32.1575         64
  32.1761         71
  32.1947         66
  32.2133         71
  32.2318         75
  32.2504         70
  32.2690         60
  32.2876         79
  32.3061         60
  32.3247         71
  32.3433         69
  32.3619         72
  32.3804         81
  32.3990         68
  32.4176         81
  32.4362         69
  32.4547         83
  32.4733         67
  32.4919         73
  32.5105         67
  32.5290         71
  32.5476         69
  32.5662         75
  32.5848         62
  32.6033         65
  32.6219         69
  32.6405         55
  32.6591         57
  32.6776         76
  32.6962         66
  32.7148         61
  32.7334         75
  32.7519         54
  32.7705         63
  32.7891         64
  32.8077         57
  32.8262         52
  32.8448         54
  32.8634         62
  32.8820         68
  32.9006         60
  32.9191         63
  32.9377         67
  32.9563         77
  32.9749         56
  32.9934         65
  33.0120         49
  33.0306         61
  33.0492         49
  33.0677         61
  33.0863         61
  33.1049         74
  33.1235         54
  33.1420         66
  33.1606         63
  33.1792         53
  33.1978         58
  33.2163         55
  33.2349         63
  33.2535         59
  33.2721         56
  33.2906         70
  33.3092         49
  33.3278         72
  33.3464         63
  33.3649         55
  33.3835         51
  33.4021         61
  33.4207         60
  33.4392         65
  33.4578         55
  33.4764         63
  33.4950         66
  33.5135         58
  33.5321         68
  33.5507         59
  33.5693         49
  33.5878         55
  33.6064         48
  33.6250         51
  33.6436         65
  33.6622         65
  33.6807         54
  33.6993         58
  33.7179         55
  33.7365         61
  33.7550         61
  33.7736         62
  33.7922         55
  33.8108         48
  33.8293         57
  33.8479         61
  33.8665         56
  33.8851         65
  33.9036         63
  33.9222         45
  33.9408         54
  33.9594         51
  33.9779         55
  33.9965         61
  34.0151         73
  34.0337         57
  34.0522         61
  34.0708         55
  34.0894         50
  34.1080         57
  34.1265         61
  34.1451         57
  34.1637         67
  34.1823         58
  34.2008         53
  34.2194         62
  34.2380         51
  34.2566         62
  34.2751         66
  34.2937         54
  34.3123         38
  34.3309         61
  34.3494         64
  34.3680         48
  34.3866         57
  34.4052         55
  34.4238         54
  34.4423         63
  34.4609         59
  34.4795         50
  34.4981         57
  34.5166         64
  34.5352         58
  34.5538         53
  34.5724         60
  34.5909         71
  34.6095         56
  34.6281         61
  34.6467         59
  34.6652         63
  34.6838         54
  34.7024         69
  34.7210         78
  34.7395         77
  34.7581         79
  34.7767         87
  34.7953         80
  34.8138         84
  34.8324         81
  34.8510         63
  34.8696         53
  34.8881         63
  34.9067         56
  34.9253         52
  34.9439         54
  34.9624         61
  34.9810         53
  34.9996         50
  35.0182         65
  35.0367         56
  35.0553         62
  35.0739         47
  35.0925         47
  35.1110         63
  35.1296         47
  35.1482         43
  35.1668         45
  35.1854         57
  35.2039         50
  35.2225         47
  35.2411         56
  35.2597         56
  35.2782         56
  35.2968         58
  35.3154         46
  35.3340         42
  35.3525         63
  35.3711         52
  35.3897         37
  35.4083         50
  35.4268         60
  35.4454         51
  35.4640         51
  35.4826         45
  35.5011         46
  35.5197         52
  35.5383         57
  35.5569         63
  35.5754         59
  35.5940         44
  35.6126         61
  35.6312         46
  35.6497         54
  35.6683         60
  35.6869         46
  35.7055         56
  35.7240         47
  35.7426         56
  35.7612         53
  35.7798         61
  35.7983         56
  35.8169         53
  35.8355         48
  35.8541         45
  35.8726         46
  35.8912         53
  35.9098         39
  35.9284         53
  35.9469         42
  35.9655         34
  35.9841         56
  36.0027         54
  36.0213         47
  36.0398         42
  36.0584         46
  36.0770         47
  36.0956         63
  36.1141         43
  36.1327         38
  36.1513         50
  36.1699         42
  36.1884         44
  36.2070         50
  36.2256         46
  36.2442         44
  36.2627         43
  36.2813         57
  36.2999         57
  36.3185         57
  36.3370         55
  36.3556         53
  36.3742         36
  36.3928         46
  36.4113         46
  36.4299         56
  36.4485         55
  36.4671         42
  36.4856         46
  36.5042         50
  36.5228         40
  36.5414         55
  36.5599         56
  36.5785         39
  36.5971         57
  36.6157         42
  36.6342         49
  36.6528         33
  36.6714         48
  36.6900         52
  36.7085         39
  36.7271         52
  36.7457         51
  36.7643         34
  36.7829         45
  36.8014         44
  36.8200         53
  36.8386         45
  36.8572         51
  36.8757         50
  36.8943         43
  36.9129         60
  36.9315         42
  36.9500         49
  36.9686         50
  36.9872         46
  37.0058         48
  37.0243         40
  37.0429         51
  37.0615         38
  37.0801         49
  37.0986         36
  37.1172         45
  37.1358         44
  37.1544         48
  37.1729         43
  37.1915         48
  37.2101         57
  37.2287         45
  37.2472         44
  37.2658         46
  37.2844         45
  37.3030         48
  37.3215         32
  37.3401         55
  37.3587         59
  37.3773         55
  37.3958         53
  37.4144         62
  37.4330         70
  37.4516         72
  37.4701         66
  37.4887         59
  37.5073         62
  37.5259         63
  37.5445         42
  37.5630         54
  37.5816         46
  37.6002         52
  37.6188         40
  37.6373         53
  37.6559         37
  37.6745         33
  37.6931         46
  37.7116         50
  37.7302         38
  37.7488         37
  37.7674         56
  37.7859         39
  37.8045         38
  37.8231         36
  37.8417         42
  37.8602         58
  37.8788         51
  37.8974         28
  37.9160         37
  37.9345         40
  37.9531         42
  37.9717         37
  37.9903         51
  38.0088         44
  38.0274         48
  38.0460         41
  38.0646         44
  38.0831         41
  38.1017         37
  38.1203         36
  38.1389         35
  38.1574         37
  38.1760         42
  38.1946         43
  38.2132         42
  38.2317         44
  38.2503         51
  38.2689         45
  38.2875         48
  38.3061         47
  38.3246         48
  38.3432         42
  38.3618         36
  38.3804         49
  38.3989         35
  38.4175         37
  38.4361         45
  38.4547         47
  38.4732         51
  38.4918         47
  38.5104         52
  38.5290         50
  38.5475         43
  38.5661         45
  38.5847         41
  38.6033         45
  38.6218         38
  38.6404         52
  38.6590         45
  38.6776         48
  38.6961         43
  38.7147         53
  38.7333         45
  38.7519         32
  38.7704         40
  38.7890         29
  38.8076         40
  38.8262         40
  38.8447         45
  38.8633         40
  38.8819         36
  38.9005         48
  38.9190         42
  38.9376         33
  38.9562         38
  38.9748         37
  38.9933         46
  39.0119         28
  39.0305         33
  39.0491         27
  39.0677         49
  39.0862         53
  39.1048         32
  39.1234         35
  39.1420         44
  39.1605         46
  39.1791         46
  39.1977         35
  39.2163         49
  39.2348         31
  39.2534         38
  39.2720         40
  39.2906         42
  39.3091         35
  39.3277         45
  39.3463         30
  39.3649         50
  39.3834         39
  39.4020         40
  39.4206         33
  39.4392         30
  39.4577         36
  39.4763         44
  39.4949         35
  39.5135         42
  39.5320         43
  39.5506         39
  39.5692         50
  39.5878         37
  39.6063         48
  39.6249         47
  39.6435         55
  39.6621         34
  39.6806         37
  39.6992         46
  39.7178         43
  39.7364         39
  39.7549         39
  39.7735         47
  39.7921         34
  39.8107         34
  39.8293         31
  39.8478         36
  39.8664         45
  39.8850         35
  39.9036         17
  39.9221         40
  39.9407         49
  39.9593         43
  39.9779         29
  39.9964         34
  40.0150         29
  40.0336         32
  40.0522         36
  40.0707         48
  40.0893         45
  40.1079         28
  40.1265         41
  40.1450         27
  40.1636         35
  40.1822         35
  40.2008         30
  40.2193         42
  40.2379         33
  40.2565         35
  40.2751         38
  40.2936         42
  40.3122         34
  40.3308         34
  40.3494         31
  40.3679         47
  40.3865         32
  40.4051         48
  40.4237         35
  40.4422         45
  40.4608         38
  40.4794         36
  40.4980         34
  40.5165         41
  40.5351         35
  40.5537         44
  40.5723         35
  40.5908         47
  40.6094         46
  40.6280         42
  40.6466         32
  40.6652         35
  40.6837         33
  40.7023         25
  40.7209         38
  40.7395         38
  40.7580         34
  40.7766         38
  40.7952         39
  40.8138         41
  40.8323         45
  40.8509         34
  40.8695         44
  40.8881         26
  40.9066         33
  40.9252         40
  40.9438         48
  40.9624         49
  40.9809         32
  40.9995         53
  41.0181         36
  41.0367         34
  41.0552         39
  41.0738         31
  41.0924         35
  41.1110         35
  41.1295         34
  41.1481         46
  41.1667         37
  41.1853         42
  41.2038         37
  41.2224         36
  41.2410         36
  41.2596         31
  41.2781         38
  41.2967         35
  41.3153         30
  41.3339         44
  41.3524         36
  41.3710         45
  41.3896         32
  41.4082         46
  41.4268         34
  41.4453         25
  41.4639         36
  41.4825         35
  41.5011         52
  41.5196         41
  41.5382         40
  41.5568         29
  41.5754         33
  41.5939         41
  41.6125         39
  41.6311         44
  41.6497         38
  41.6682         36
  41.6868         34
  41.7054         32
  41.7240         39
  41.7425         33
  41.7611         37
  41.7797         44
  41.7983         38
  41.8168         38
  41.8354         38
  41.8540         32
  41.8726         39
  41.8911         33
  41.9097         37
  41.9283         37
  41.9469         32
  41.9654         40
  41.9840         31
  42.0026         44
  42.0212         48
  42.0397         40
  42.0583         39
  42.0769         33
  42.0955         33
  42.1140         30
  42.1326         47
  42.1512         48
  42.1698         38
  42.1884         33
  42.2069         35
  42.2255         32
  42.2441         38
  42.2627         34
  42.2812         26
  42.2998         33
  42.3184         40
  42.3370         35
  42.3555         40
  42.3741         45
  42.3927         47
  42.4113         30
  42.4298         35
  42.4484         51
  42.4670         42
  42.4856         43
  42.5041         38
  42.5227         47
  42.5413         29
  42.5599         34
  42.5784         32
  42.5970         41
  42.6156         40
  42.6342         37
  42.6527         44
  42.6713         41
  42.6899         39
  42.7085         29
  42.7270         34
  42.7456         40
  42.7642         40
  42.7828         32
  42.8013         33
  42.8199         32
  42.8385         35
  42.8571         35
  42.8756         43
  42.8942         32
  42.9128         31
  42.9314         25
  42.9500         35
  42.9685         37
  42.9871         36
  43.0057         30
  43.0243         39
  43.0428         27
  43.0614         38
  43.0800         41
  43.0986         40
  43.1171         31
  43.1357         22
  43.1543         34
  43.1729         39
  43.1914         40
  43.2100         39
  43.2286         58
  43.2472         38
  43.2657         35
  43.2843         48
  43.3029         32
  43.3215         43
  43.3400         52
  43.3586         44
  43.3772         40
  43.3958         43
  43.4143         38
  43.4329         52
  43.4515         41
  43.4701         49
  43.4886         65
  43.5072         66
  43.5258         56
  43.5444         42
  43.5629         40
  43.5815         54
  43.6001         52
  43.6187         53
  43.6372         51
  43.6558         40
  43.6744         37
  43.6930         36
  43.7116         33
  43.7301         43
  43.7487         36
  43.7673         49
  43.7859         36
  43.8044         48
  43.8230         29
  43.8416         33
  43.8602         32
  43.8787         39
  43.8973         30
  43.9159         45
  43.9345         38
  43.9530         33
  43.9716         35
  43.9902         21
  44.0088         35
  44.0273         31
  44.0459         45
  44.0645         34
  44.0831         37
  44.1016         34
  44.1202         33
  44.1388         27
  44.1574         22
  44.1759         40
  44.1945         43
  44.2131         35
  44.2317         34
  44.2502         36
  44.2688         33
  44.2874         34
  44.3060         40
  44.3245         43
  44.3431         38
  44.3617         35
  44.3803         34
  44.3988         34
  44.4174         45
  44.4360         52
  44.4546         44
  44.4732         46
  44.4917         33
  44.5103         38
  44.5289         29
  44.5475         45
  44.5660         38
  44.5846         41
  44.6032         34
  44.6218         44
  44.6403         31
  44.6589         41
  44.6775         32
  44.6961         33
  44.7146         47
  44.7332         38
  44.7518         36
  44.7704         36
  44.7889         32
  44.8075         33
  44.8261         39
  44.8447         33
  44.8632         45
  44.8818         48
  44.9004         36
  44.9190         31
  44.9375         26
  44.9561         37
  44.9747         36
  44.9933         46
  45.0118         24
  45.0304         38
  45.0490         41
  45.0676         34
  45.0861         33
  45.1047         31
  45.1233         37
  45.1419         37
  45.1604         27
  45.1790         41
  45.1976         37
  45.2162         26
  45.2347         52
  45.2533         28
  45.2719         27
  45.2905         29
  45.3091         34
  45.3276         23
  45.3462         34
  45.3648         37
  45.3834         43
  45.4019         38
  45.4205         26
  45.4391         30
  45.4577         35
  45.4762         42
  45.4948         37
  45.5134         33
  45.5320         38
  45.5505         41
  45.5691         28
  45.5877         33
  45.6063         33
  45.6248         37
  45.6434         32
  45.6620         28
  45.6806         25
  45.6991         26
  45.7177         22
  45.7363         34
  45.7549         30
  45.7734         36
  45.7920         35
  45.8106         27
  45.8292         34
  45.8477         32
  45.8663         39
  45.8849         27
  45.9035         29
  45.9220         33
  45.9406         36
  45.9592         33
  45.9778         44
  45.9963         25
  46.0149         37
  46.0335         35
  46.0521         34
  46.0707         41
  46.0892         35
  46.1078         29
  46.1264         34
  46.1450         35
  46.1635         25
  46.1821         23
  46.2007         38
  46.2193         38
  46.2378         39
  46.2564         28
  46.2750         38
  46.2936         30
  46.3121         33
  46.3307         27
  46.3493         27
  46.3679         37
  46.3864         36
  46.4050         27
  46.4236         30
  46.4422         26
  46.4607         25
  46.4793         37
  46.4979         30
  46.5165         28
  46.5350         30
  46.5536         29
  46.5722         30
  46.5908         37
  46.6093         30
  46.6279         43
  46.6465         27
  46.6651         34
  46.6836         29
  46.7022         33
  46.7208         27
  46.7394         36
  46.7579         28
  46.7765         24
  46.7951         25
  46.8137         30
  46.8323         34
  46.8508         28
  46.8694         36
  46.8880         28
  46.9066         18
  46.9251         44
  46.9437         32
  46.9623         30
  46.9809         29
  46.9994         21
  47.0180         37
  47.0366         38
  47.0552         30
  47.0737         31
  47.0923         27
  47.1109         30
  47.1295         41
  47.1480         38
  47.1666         42
  47.1852         29
  47.2038         24
  47.2223         32
  47.2409         25
  47.2595         35
  47.2781         31
  47.2966         28
  47.3152         22
  47.3338         25
  47.3524         26
  47.3709         30
  47.3895         33
  47.4081         33
  47.4267         35
  47.4452         29
  47.4638         29
  47.4824         29
  47.5010         34
  47.5195         27
  47.5381         22
  47.5567         28
  47.5753         46
  47.5939         30
  47.6124         39
  47.6310         41
  47.6496         32
  47.6682         32
  47.6867         25
  47.7053         26
  47.7239         35
  47.7425         43
  47.7610         34
  47.7796         27
  47.7982         32
  47.8168         41
  47.8353         34
  47.8539         33
  47.8725         29
  47.8911         43
  47.9096         38
  47.9282         35
  47.9468         36
  47.9654         38
  47.9839         29
  48.0025         38
  48.0211         24
  48.0397         25
  48.0582         37
  48.0768         28
  48.0954         42
  48.1140         26
  48.1325         32
  48.1511         34
  48.1697         36
  48.1883         39
  48.2068         35
  48.2254         27
  48.2440         24
  48.2626         29
  48.2811         27
  48.2997         34
  48.3183         37
  48.3369         28
  48.3555         27
  48.3740         24
  48.3926         37
  48.4112         30
  48.4298         24
  48.4483         30
  48.4669         30
  48.4855         29
  48.5041         38
  48.5226         29
  48.5412         49
  48.5598         30
  48.5784         30
  48.5969         26
  48.6155         26
  48.6341         34
  48.6527         38
  48.6712         42
  48.6898         27
  48.7084         24
  48.7270         28
  48.7455         38
  48.7641         26
  48.7827         32
  48.8013         28
  48.8198         39
  48.8384         28
  48.8570         35
  48.8756         40
  48.8941         48
  48.9127         41
  48.9313         40
  48.9499         74
  48.9684         65
  48.9870         64
  49.0056         37
  49.0242         38
  49.0427         45
  49.0613         47
  49.0799         62
  49.0985         48
  49.1171         35
  49.1356         35
  49.1542         41
  49.1728         29
  49.1914         40
  49.2099         29
  49.2285         39
  49.2471         40
  49.2657         31
  49.2842         35
  49.3028         24
  49.3214         19
  49.3400         34
  49.3585         33
  49.3771         26
  49.3957         36
  49.4143         34
  49.4328         28
  49.4514         24
  49.4700         33
  49.4886         43
  49.5071         36
  49.5257         39
  49.5443         29
  49.5629         31
  49.5814         33
  49.6000         31
  49.6186         30
  49.6372         30
  49.6557         27
  49.6743         22
  49.6929         36
  49.7115         31
  49.7300         32
  49.7486         43
  49.7672         29
  49.7858         37
  49.8043         32
  49.8229         37
  49.8415         28
  49.8601         30
  49.8786         19
  49.8972         39
  49.9158         25
  49.9344         24
  49.9530         29
  49.9715         28
  49.9901         28
  50.0087         20
  50.0273         28
  50.0458         36
  50.0644         26
  50.0830         30
  50.1016         34
  50.1201         23
  50.1387         30
  50.1573         25
  50.1759         33
  50.1944         25
  50.2130         29
  50.2316         36
  50.2502         30
  50.2687         35
  50.2873         32
  50.3059         30
  50.3245         25
  50.3430         43
  50.3616         31
  50.3802         19
  50.3988         30
  50.4173         29
  50.4359         34
  50.4545         23
  50.4731         33
  50.4916         35
  50.5102         38
  50.5288         23
  50.5474         36
  50.5659         24
  50.5845         30
  50.6031         32
  50.6217         29
  50.6402         25
  50.6588         33
  50.6774         25
  50.6960         24
  50.7146         31
  50.7331         27
  50.7517         31
  50.7703         33
  50.7889         27
  50.8074         35
  50.8260         29
  50.8446         16
  50.8632         31
  50.8817         30
  50.9003         23
  50.9189         22
  50.9375         37
  50.9560         25
  50.9746         25
  50.9932         31
  51.0118         36
  51.0303         35
  51.0489         28
  51.0675         27
  51.0861         30
  51.1046         29
  51.1232         38
  51.1418         33
  51.1604         36
  51.1789         28
  51.1975         28
  51.2161         26
  51.2347         21
  51.2532         20
  51.2718         21
  51.2904         28
  51.3090         31
  51.3275         26
  51.3461         29
  51.3647         39
  51.3833         31
  51.4018         41
  51.4204         40
  51.4390         25
  51.4576         35
  51.4762         31
  51.4947         29
  51.5133         26
  51.5319         24
  51.5505         30
  51.5690         31
  51.5876         29
  51.6062         28
  51.6248         30
  51.6433         26
  51.6619         37
  51.6805         31
  51.6991         28
  51.7176         36
  51.7362         41
  51.7548         32
  51.7734         28
  51.7919         25
  51.8105         41
  51.8291         38
  51.8477         24
  51.8662         32
  51.8848         26
  51.9034         28
  51.9220         30
  51.9405         33
  51.9591         36
  51.9777         29
  51.9963         33
  52.0148         29
  52.0334         31
  52.0520         37
  52.0706         32
  52.0891         25
  52.1077         23
  52.1263         29
  52.1449         38
  52.1634         31
  52.1820         30
  52.2006         22
  52.2192         32
  52.2378         25
  52.2563         23
  52.2749         30
  52.2935         21
  52.3121         26
  52.3306         24
  52.3492         24
  52.3678         25
  52.3864         33
  52.4049         25
  52.4235         28
  52.4421         25
  52.4607         32
  52.4792         31
  52.4978         28
  52.5164         45
  52.5350         44
  52.5535         34
  52.5721         27
  52.5907         20
  52.6093         34
  52.6278         35
  52.6464         24
  52.6650         32
  52.6836         36
  52.7021         28
  52.7207         34
  52.7393         22
  52.7579         29
  52.7764         22
  52.7950         33
  52.8136         21
  52.8322         25
  52.8507         27
  52.8693         32
  52.8879         32
  52.9065         30
  52.9250         25
  52.9436         38
  52.9622         28
  52.9808         31
  52.9994         38
  53.0179         36
  53.0365         22
  53.0551         33
  53.0737         33
  53.0922         26
  53.1108         31
  53.1294         34
  53.1480         36
  53.1665         30
  53.1851         25
  53.2037         27
  53.2223         37
  53.2408         24
  53.2594         27
  53.2780         21
  53.2966         26
  53.3151         23
  53.3337         34
  53.3523         28
  53.3709         23
  53.3894         33
  53.4080         24
  53.4266         36
  53.4452         34
  53.4637         33
  53.4823         24
  53.5009         26
  53.5195         29
  53.5380         25
  53.5566         25
  53.5752         25
  53.5938         28
  53.6123         31
  53.6309         19
  53.6495         31
  53.6681         36
  53.6866         30
  53.7052         21
  53.7238         29
  53.7424         22
  53.7610         28
  53.7795         33
  53.7981         34
  53.8167         27
  53.8353         30
  53.8538         31
  53.8724         27
  53.8910         30
  53.9096         22
  53.9281         25
  53.9467         33
  53.9653         36
  53.9839         41
  54.0024         57
  54.0210         34
  54.0396         33
  54.0582         30
  54.0767         32
  54.0953         32
  54.1139         31
  54.1325         36
  54.1510         41
  54.1696         32
  54.1882         31
  54.2068         37
  54.2253         38
  54.2439         38
  54.2625         29
  54.2811         28
  54.2996         30
  54.3182         34
  54.3368         35
  54.3554         35
  54.3739         20
  54.3925         30
  54.4111         25
  54.4297         21
  54.4482         25
  54.4668         26
  54.4854         31
  54.5040         27
  54.5225         31
  54.5411         21
  54.5597         32
  54.5783         33
  54.5969         28
  54.6154         22
  54.6340         33
  54.6526         26
  54.6712         34
  54.6897         22
  54.7083         27
  54.7269         24
  54.7455         35
  54.7640         32
  54.7826         34
  54.8012         42
  54.8198         38
  54.8383         28
  54.8569         33
  54.8755         29
  54.8941         29
  54.9126         30
  54.9312         26
  54.9498         31
  54.9684         23
  54.9869         24
  55.0055         31
  55.0241         28
  55.0427         23
  55.0612         27
  55.0798         34
  55.0984         23
  55.1170         36
  55.1355         23
  55.1541         39
  55.1727         21
  55.1913         32
  55.2098         23
  55.2284         35
  55.2470         29
  55.2656         31
  55.2841         33
  55.3027         34
  55.3213         27
  55.3399         24
  55.3585         23
  55.3770         31
  55.3956         24
  55.4142         23
  55.4328         35
  55.4513         20
  55.4699         34
  55.4885         29
  55.5071         21
  55.5256         28
  55.5442         31
  55.5628         30
  55.5814         25
  55.5999         32
  55.6185         27
  55.6371         27
  55.6557         21
  55.6742         31
  55.6928         30
  55.7114         33
  55.7300         31
  55.7485         32
  55.7671         31
  55.7857         29
  55.8043         29
  55.8228         42
  55.8414         24
  55.8600         20
  55.8786         27
  55.8971         27
  55.9157         23
  55.9343         28
  55.9529         30
  55.9714         24
  55.9900         28
  56.0086         26
  56.0272         29
  56.0457         26
  56.0643         37
  56.0829         29
  56.1015         27
  56.1201         42
  56.1386         28
  56.1572         25
  56.1758         30
  56.1944         30
  56.2129         36
  56.2315         38
  56.2501         28
  56.2687         26
  56.2872         33
  56.3058         30
  56.3244         35
  56.3430         46
  56.3615         26
  56.3801         24
  56.3987         37
  56.4173         29
  56.4358         32
  56.4544         25
  56.4730         28
  56.4916         29
  56.5101         22
  56.5287         19
  56.5473         26
  56.5659         28
  56.5844         25
  56.6030         21
  56.6216         35
  56.6402         29
  56.6587         28
  56.6773         35
  56.6959         26
  56.7145         29
  56.7330         31
  56.7516         33
  56.7702         37
  56.7888         25
  56.8073         27
  56.8259         37
  56.8445         30
  56.8631         23
  56.8817         27
  56.9002         32
  56.9188         39
  56.9374         24
  56.9560         24
  56.9745         29
  56.9931         30
  57.0117         39
  57.0303         19
  57.0488         28
  57.0674         30
  57.0860         35
  57.1046         32
  57.1231         26
  57.1417         26
  57.1603         32
  57.1789         31
  57.1974         18
  57.2160         28
  57.2346         28
  57.2532         33
  57.2717         25
  57.2903         29
  57.3089         27
  57.3275         22
  57.3460         26
  57.3646         25
  57.3832         33
  57.4018         30
  57.4203         24
  57.4389         31
  57.4575         21
  57.4761         40
  57.4946         33
  57.5132         21
  57.5318         26
  57.5504         25
  57.5689         26
  57.5875         18
  57.6061         31
  57.6247         28
  57.6433         28
  57.6618         29
  57.6804         23
  57.6990         29
  57.7176         25
  57.7361         28
  57.7547         26
  57.7733         33
  57.7919         35
  57.8104         27
  57.8290         26
  57.8476         23
  57.8662         25
  57.8847         31
  57.9033         22
  57.9219         26
  57.9405         28
  57.9590         16
  57.9776         30
  57.9962         28
  58.0148         44
  58.0333         24
  58.0519         24
  58.0705         37
  58.0891         26
  58.1076         24
  58.1262         20
  58.1448         17
  58.1634         20
  58.1819         24
  58.2005         20
  58.2191         31
  58.2377         24
  58.2562         27
  58.2748         25
  58.2934         23
  58.3120         26
  58.3305         23
  58.3491         30
  58.3677         37
  58.3863         29
  58.4049         29
  58.4234         26
  58.4420         25
  58.4606         31
  58.4792         30
  58.4977         25
  58.5163         21
  58.5349         38
  58.5535         33
  58.5720         24
  58.5906         31
  58.6092         35
  58.6278         27
  58.6463         33
  58.6649         28
  58.6835         25
  58.7021         25
  58.7206         34
  58.7392         32
  58.7578         26
  58.7764         23
  58.7949         26
  58.8135         25
  58.8321         33
  58.8507         19
  58.8692         24
  58.8878         28
  58.9064         28
  58.9250         24
  58.9435         31
  58.9621         39
  58.9807         30
  58.9993         22
  59.0178         18
  59.0364         26
  59.0550         23
  59.0736         24
  59.0921         22
  59.1107         28
  59.1293         36
  59.1479         19
  59.1664         18
  59.1850         27
  59.2036         25
  59.2222         29
  59.2408         24
  59.2593         24
  59.2779         13
  59.2965         32
  59.3151         20
  59.3336         34
  59.3522         26
  59.3708         27
  59.3894         33
  59.4079         20
  59.4265         29
  59.4451         35
  59.4637         26
  59.4822         34
  59.5008         27
  59.5194         29
  59.5380         21
  59.5565         17
  59.5751         30
  59.5937         31
  59.6123         25
  59.6308         23
  59.6494         29
  59.6680         22
  59.6866         29
  59.7051         40
  59.7237         36
  59.7423         28
  59.7609         32
  59.7794         26
  59.7980         28
  59.8166         26
  59.8352         28
  59.8537         26
  59.8723         24
  59.8909         26
  59.9095         35
  59.9280         29
  59.9466         29
  59.9652         28
  59.9838         31
  60.0024         26
