;,2THETA,
5.0000,139
5.0186,112
5.0372,127
5.0557,127
5.0743,130
5.0929,126
5.1115,116
5.1300,126
5.1486,108
5.1672,123
5.1858,135
5.2043,123
5.2229,118
5.2415,108
5.2601,127
5.2786,131
5.2972,107
5.3158,123
5.3344,115
5.3529,137
5.3715,105
5.3901,118
5.4087,113
5.4272,119
5.4458,112
5.4644,124
5.4830,121
5.5015,114
5.5201,122
5.5387,120
5.5573,103
5.5758,105
5.5944,114
5.6130,110
5.6316,94
5.6501,110
5.6687,113
5.6873,108
5.7059,120
5.7244,106
5.7430,120
5.7616,94
5.7802,112
5.7988,114
5.8173,92
5.8359,105
5.8545,107
5.8731,102
5.8916,125
5.9102,116
5.9288,83
5.9474,88
5.9659,88
5.9845,118
6.0031,103
6.0217,105
6.0402,84
6.0588,104
6.0774,95
6.0960,91
6.1145,98
6.1331,96
6.1517,95
6.1703,90
6.1888,94
6.2074,79
6.2260,92
6.2446,82
6.2631,100
6.2817,103
6.3003,85
6.3189,94
6.3374,93
6.3560,83
6.3746,88
6.3932,89
6.4117,83
6.4303,78
6.4489,97
6.4675,68
6.4860,97
6.5046,84
6.5232,74
6.5418,81
6.5604,89
6.5789,83
6.5975,91
6.6161,81
6.6347,77
6.6532,76
6.6718,72
6.6904,87
6.7090,89
6.7275,82
6.7461,66
6.7647,66
6.7833,104
6.8018,85
6.8204,91
6.8390,96
6.8576,94
6.8761,62
6.8947,79
6.9133,92
6.9319,96
6.9504,70
6.9690,77
6.9876,75
7.0062,97
7.0247,83
7.0433,69
7.0619,57
7.0805,80
7.0990,90
7.1176,75
7.1362,69
7.1548,76
7.1733,72
7.1919,85
7.2105,62
7.2291,93
7.2476,93
7.2662,66
7.2848,79
7.3034,77
7.3220,69
7.3405,68
7.3591,80
7.3777,69
7.3963,77
7.4148,79
7.4334,85
7.4520,71
7.4706,78
7.4891,87
7.5077,79
7.5263,84
7.5449,69
7.5634,96
7.5820,102
7.6006,88
7.6192,86
7.6377,80
7.6563,79
7.6749,87
7.6935,85
7.7120,79
7.7306,82
7.7492,94
7.7678,79
7.7863,70
7.8049,94
7.8235,70
7.8421,88
7.8606,95
7.8792,81
7.8978,83
7.9164,86
7.9349,85
7.9535,90
7.9721,86
7.9907,92
8.0092,107
8.0278,101
8.0464,83
8.0650,101
8.0835,93
8.1021,103
8.1207,88
8.1393,92
8.1579,78
8.1764,91
8.1950,79
8.2136,102
8.2322,92
8.2507,98
8.2693,81
8.2879,107
8.3065,74
8.3250,90
8.3436,70
8.3622,88
8.3808,100
8.3993,98
8.4179,111
8.4365,108
8.4551,79
8.4736,94
8.4922,94
8.5108,88
8.5294,106
8.5479,88
8.5665,78
8.5851,107
8.6037,95
8.6222,89
8.6408,93
8.6594,73
8.6780,95
8.6965,104
8.7151,95
8.7337,96
8.7523,107
8.7708,116
8.7894,89
8.8080,107
8.8266,72
8.8451,90
8.8637,96
8.8823,112
8.9009,100
8.9195,101
8.9380,121
8.9566,97
8.9752,100
8.9938,114
9.0123,104
9.0309,117
9.0495,115
9.0681,94
9.0866,119
9.1052,89
9.1238,125
9.1424,95
9.1609,119
9.1795,110
9.1981,98
9.2167,105
9.2352,91
9.2538,100
9.2724,110
9.2910,106
9.3095,110
9.3281,110
9.3467,116
9.3653,116
9.3838,107
9.4024,95
9.4210,104
9.4396,106
9.4581,130
9.4767,110
9.4953,96
9.5139,103
9.5324,111
9.5510,111
9.5696,112
9.5882,132
9.6067,119
9.6253,103
9.6439,98
9.6625,95
9.6811,113
9.6996,116
9.7182,119
9.7368,106
9.7554,126
9.7739,92
9.7925,117
9.8111,109
9.8297,116
9.8482,122
9.8668,106
9.8854,106
9.9040,113
9.9225,123
9.9411,143
9.9597,115
9.9783,133
9.9968,110
10.0154,115
10.0340,126
10.0526,112
10.0711,99
10.0897,122
10.1083,116
10.1269,109
10.1454,110
10.1640,116
10.1826,122
10.2012,131
10.2197,115
10.2383,131
10.2569,125
10.2755,116
10.2940,133
10.3126,127
10.3312,116
10.3498,107
10.3683,124
10.3869,115
10.4055,114
10.4241,117
10.4427,129
10.4612,142
10.4798,126
10.4984,117
10.5170,125
10.5355,112
10.5541,119
10.5727,123
10.5913,138
10.6098,139
10.6284,108
10.6470,120
10.6656,111
10.6841,109
10.7027,123
10.7213,113
10.7399,130
10.7584,119
10.7770,123
10.7956,115
10.8142,105
10.8327,129
10.8513,115
10.8699,114
10.8885,115
10.9070,125
10.9256,112
10.9442,109
10.9628,122
10.9813,130
10.9999,111
11.0185,112
11.0371,121
11.0556,106
11.0742,120
11.0928,127
11.1114,113
11.1299,112
11.1485,124
11.1671,141
11.1857,95
11.2043,124
11.2228,108
11.2414,119
11.2600,122
11.2786,118
11.2971,129
11.3157,111
11.3343,111
11.3529,119
11.3714,109
11.3900,126
11.4086,104
11.4272,119
11.4457,116
11.4643,92
11.4829,128
11.5015,104
11.5200,105
11.5386,99
11.5572,115
11.5758,118
11.5943,124
11.6129,113
11.6315,110
11.6501,109
11.6686,121
11.6872,105
11.7058,108
11.7244,100
11.7429,104
11.7615,114
11.7801,101
11.7987,116
11.8172,113
11.8358,102
11.8544,106
11.8730,107
11.8915,106
11.9101,105
11.9287,115
11.9473,124
11.9659,116
11.9844,101
12.0030,120
12.0216,95
12.0402,112
12.0587,108
12.0773,93
12.0959,101
12.1145,109
12.1330,113
12.1516,105
12.1702,114
12.1888,117
12.2073,105
12.2259,114
12.2445,101
12.2631,94
12.2816,93
12.3002,102
12.3188,111
12.3374,115
12.3559,104
12.3745,122
12.3931,100
12.4117,105
12.4302,112
12.4488,122
12.4674,97
12.4860,100
12.5045,95
12.5231,87
12.5417,115
12.5603,109
12.5788,102
12.5974,107
12.6160,102
12.6346,108
12.6531,105
12.6717,108
12.6903,94
12.7089,141
12.7274,94
12.7460,106
12.7646,100
12.7832,100
12.8018,86
12.8203,103
12.8389,91
12.8575,102
12.8761,100
12.8946,98
12.9132,107
12.9318,89
12.9504,107
12.9689,106
12.9875,94
13.0061,79
13.0247,90
13.0432,108
13.0618,82
13.0804,102
13.0990,115
13.1175,102
13.1361,100
13.1547,98
13.1733,106
13.1918,115
13.2104,105
13.2290,100
13.2476,104
13.2661,84
13.2847,93
13.3033,78
13.3219,92
13.3404,116
13.3590,94
13.3776,101
13.3962,102
13.4147,80
13.4333,114
13.4519,104
13.4705,102
13.4890,90
13.5076,112
13.5262,100
13.5448,97
13.5634,88
13.5819,91
13.6005,110
13.6191,94
13.6377,87
13.6562,105
13.6748,100
13.6934,92
13.7120,83
13.7305,91
13.7491,98
13.7677,86
13.7863,83
13.8048,100
13.8234,70
13.8420,104
13.8606,88
13.8791,85
13.8977,86
13.9163,93
13.9349,93
13.9534,93
13.9720,90
13.9906,89
14.0092,79
14.0277,80
14.0463,80
14.0649,103
14.0835,94
14.1020,87
14.1206,90
14.1392,104
14.1578,105
14.1763,95
14.1949,96
14.2135,102
14.2321,100
14.2506,96
14.2692,91
14.2878,82
14.3064,104
14.3250,83
14.3435,87
14.3621,87
14.3807,86
14.3993,75
14.4178,86
14.4364,82
14.4550,83
14.4736,74
14.4921,92
14.5107,87
14.5293,90
14.5479,77
14.5664,80
14.5850,81
14.6036,96
14.6222,93
14.6407,90
14.6593,67
14.6779,71
14.6965,67
14.7150,85
14.7336,81
14.7522,92
14.7708,86
14.7893,92
14.8079,88
14.8265,70
14.8451,89
14.8636,65
14.8822,64
14.9008,74
14.9194,71
14.9379,82
14.9565,75
14.9751,89
14.9937,83
15.0122,86
15.0308,86
15.0494,78
15.0680,81
15.0866,74
15.1051,103
15.1237,75
15.1423,77
15.1609,85
15.1794,77
15.1980,88
15.2166,75
15.2352,77
15.2537,90
15.2723,69
15.2909,78
15.3095,65
15.3280,76
15.3466,73
15.3652,95
15.3838,77
15.4023,66
15.4209,62
15.4395,65
15.4581,70
15.4766,75
15.4952,69
15.5138,73
15.5324,71
15.5509,93
15.5695,92
15.5881,73
15.6067,83
15.6252,84
15.6438,77
15.6624,77
15.6810,66
15.6995,95
15.7181,67
15.7367,73
15.7553,75
15.7738,70
15.7924,68
15.8110,86
15.8296,83
15.8482,75
15.8667,78
15.8853,70
15.9039,83
15.9225,92
15.9410,98
15.9596,91
15.9782,83
15.9968,88
16.0153,86
16.0339,79
16.0525,76
16.0711,66
16.0896,81
16.1082,84
16.1268,78
16.1454,81
16.1639,76
16.1825,101
16.2011,80
16.2197,70
16.2382,98
16.2568,70
16.2754,77
16.2940,67
16.3125,75
16.3311,80
16.3497,75
16.3683,79
16.3868,73
16.4054,73
16.4240,97
16.4426,94
16.4611,76
16.4797,84
16.4983,72
16.5169,70
16.5354,72
16.5540,77
16.5726,73
16.5912,72
16.6097,90
16.6283,64
16.6469,84
16.6655,80
16.6841,81
16.7026,83
16.7212,79
16.7398,88
16.7584,67
16.7769,97
16.7955,91
16.8141,89
16.8327,70
16.8512,92
16.8698,86
16.8884,75
16.9070,97
16.9255,82
16.9441,101
16.9627,82
16.9813,85
16.9998,84
17.0184,76
17.0370,56
17.0556,83
17.0741,65
17.0927,80
17.1113,75
17.1299,73
17.1484,79
17.1670,79
17.1856,89
17.2042,90
17.2227,82
17.2413,85
17.2599,78
17.2785,78
17.2970,93
17.3156,75
17.3342,77
17.3528,90
17.3713,72
17.3899,88
17.4085,84
17.4271,77
17.4457,80
17.4642,89
17.4828,65
17.5014,83
17.5200,70
17.5385,82
17.5571,77
17.5757,81
17.5943,79
17.6128,73
17.6314,77
17.6500,84
17.6686,96
17.6871,87
17.7057,74
17.7243,74
17.7429,84
17.7614,74
17.7800,68
17.7986,89
17.8172,77
17.8357,95
17.8543,75
17.8729,92
17.8915,96
17.9100,86
17.9286,81
17.9472,75
17.9658,110
17.9843,62
18.0029,77
18.0215,86
18.0401,77
18.0586,78
18.0772,96
18.0958,86
18.1144,89
18.1329,85
18.1515,83
18.1701,82
18.1887,82
18.2073,99
18.2258,94
18.2444,88
18.2630,89
18.2816,90
18.3001,59
18.3187,97
18.3373,78
18.3559,77
18.3744,88
18.3930,78
18.4116,64
18.4302,70
18.4487,77
18.4673,62
18.4859,94
18.5045,88
18.5230,82
18.5416,82
18.5602,86
18.5788,78
18.5973,71
18.6159,88
18.6345,74
18.6531,97
18.6716,82
18.6902,77
18.7088,91
18.7274,90
18.7459,82
18.7645,86
18.7831,96
18.8017,85
18.8202,98
18.8388,83
18.8574,89
18.8760,67
18.8945,69
18.9131,83
18.9317,90
18.9503,77
18.9689,89
18.9874,75
19.0060,87
19.0246,94
19.0432,65
19.0617,73
19.0803,77
19.0989,77
19.1175,93
19.1360,84
19.1546,98
19.1732,97
19.1918,94
19.2103,89
19.2289,74
19.2475,85
19.2661,90
19.2846,84
19.3032,77
19.3218,75
19.3404,71
19.3589,89
19.3775,82
19.3961,94
19.4147,94
19.4332,76
19.4518,88
19.4704,104
19.4890,81
19.5075,66
19.5261,82
19.5447,71
19.5633,91
19.5818,83
19.6004,82
19.6190,85
19.6376,94
19.6561,79
19.6747,84
19.6933,70
19.7119,104
19.7305,88
19.7490,102
19.7676,96
19.7862,82
19.8048,76
19.8233,103
19.8419,90
19.8605,84
19.8791,79
19.8976,90
19.9162,115
19.9348,70
19.9534,88
19.9719,83
19.9905,86
20.0091,101
20.0277,91
20.0462,87
20.0648,80
20.0834,112
20.1020,82
20.1205,97
20.1391,89
20.1577,81
20.1763,107
20.1948,99
20.2134,93
20.2320,94
20.2506,85
20.2691,86
20.2877,77
20.3063,95
20.3249,105
20.3434,97
20.3620,110
20.3806,95
20.3992,99
20.4177,95
20.4363,99
20.4549,102
20.4735,98
20.4921,92
20.5106,100
20.5292,103
20.5478,89
20.5664,87
20.5849,88
20.6035,86
20.6221,94
20.6407,99
20.6592,98
20.6778,86
20.6964,80
20.7150,78
20.7335,107
20.7521,89
20.7707,93
20.7893,82
20.8078,86
20.8264,102
20.8450,92
20.8636,92
20.8821,81
20.9007,95
20.9193,102
20.9379,100
20.9564,90
20.9750,88
20.9936,93
21.0122,104
21.0307,98
21.0493,102
21.0679,100
21.0865,98
21.1050,94
21.1236,114
21.1422,108
21.1608,116
21.1793,122
21.1979,140
21.2165,163
21.2351,182
21.2537,151
21.2722,141
21.2908,154
21.3094,157
21.3280,162
21.3465,256
21.3651,260
21.3837,195
21.4023,201
21.4208,169
21.4394,156
21.4580,95
21.4766,104
21.4951,111
21.5137,115
21.5323,93
21.5509,101
21.5694,99
21.5880,96
21.6066,96
21.6252,98
21.6437,106
21.6623,103
21.6809,95
21.6995,101
21.7180,104
21.7366,87
21.7552,112
21.7738,85
21.7923,99
21.8109,87
21.8295,101
21.8481,88
21.8666,98
21.8852,119
21.9038,107
21.9224,111
21.9409,96
21.9595,90
21.9781,91
21.9967,93
22.0152,97
22.0338,81
22.0524,81
22.0710,86
22.0896,85
22.1081,93
22.1267,116
22.1453,82
22.1639,103
22.1824,87
22.2010,104
22.2196,124
22.2382,105
22.2567,91
22.2753,116
22.2939,99
22.3125,111
22.3310,99
22.3496,77
22.3682,96
22.3868,111
22.4053,97
22.4239,108
22.4425,107
22.4611,96
22.4796,105
22.4982,101
22.5168,101
22.5354,110
22.5539,93
22.5725,102
22.5911,94
22.6097,103
22.6282,108
22.6468,124
22.6654,95
22.6840,109
22.7025,86
22.7211,110
22.7397,115
22.7583,95
22.7768,98
22.7954,99
22.8140,95
22.8326,81
22.8512,96
22.8697,112
22.8883,105
22.9069,103
22.9255,107
22.9440,89
22.9626,107
22.9812,100
22.9998,89
23.0183,125
23.0369,118
23.0555,98
23.0741,94
23.0926,82
23.1112,95
23.1298,103
23.1484,94
23.1669,97
23.1855,94
23.2041,98
23.2227,91
23.2412,106
23.2598,113
23.2784,110
23.2970,89
23.3155,105
23.3341,96
23.3527,101
23.3713,93
23.3898,100
23.4084,80
23.4270,103
23.4456,111
23.4641,74
23.4827,89
23.5013,92
23.5199,84
23.5384,107
23.5570,112
23.5756,83
23.5942,96
23.6128,101
23.6313,94
23.6499,102
23.6685,108
23.6871,95
23.7056,94
23.7242,82
23.7428,76
23.7614,112
23.7799,104
23.7985,100
23.8171,122
23.8357,109
23.8542,85
23.8728,103
23.8914,100
23.9100,102
23.9285,95
23.9471,100
23.9657,87
23.9843,96
24.0028,100
24.0214,106
24.0400,109
24.0586,106
24.0771,102
24.0957,107
24.1143,100
24.1329,93
24.1514,85
24.1700,113
24.1886,91
24.2072,112
24.2257,104
24.2443,118
24.2629,104
24.2815,122
24.3000,110
24.3186,114
24.3372,93
24.3558,89
24.3744,118
24.3929,105
24.4115,108
24.4301,98
24.4487,79
24.4672,106
24.4858,103
24.5044,114
24.5230,85
24.5415,85
24.5601,82
24.5787,80
24.5973,91
24.6158,122
24.6344,88
24.6530,102
24.6716,107
24.6901,98
24.7087,84
24.7273,103
24.7459,87
24.7644,95
24.7830,102
24.8016,115
24.8202,101
24.8387,121
24.8573,94
24.8759,108
24.8945,103
24.9130,83
24.9316,99
24.9502,83
24.9688,108
24.9873,90
25.0059,77
25.0245,104
25.0431,90
25.0616,88
25.0802,87
25.0988,83
25.1174,105
25.1360,111
25.1545,82
25.1731,102
25.1917,106
25.2103,111
25.2288,84
25.2474,97
25.2660,96
25.2846,89
25.3031,94
25.3217,79
25.3403,107
25.3589,109
25.3774,91
25.3960,121
25.4146,101
25.4332,92
25.4517,93
25.4703,86
25.4889,95
25.5075,87
25.5260,89
25.5446,79
25.5632,95
25.5818,81
25.6003,103
25.6189,88
25.6375,109
25.6561,94
25.6746,87
25.6932,107
25.7118,98
25.7304,115
25.7489,93
25.7675,96
25.7861,106
25.8047,93
25.8232,98
25.8418,84
25.8604,97
25.8790,100
25.8976,102
25.9161,82
25.9347,95
25.9533,106
25.9719,103
25.9904,96
26.0090,97
26.0276,96
26.0462,77
26.0647,106
26.0833,88
26.1019,87
26.1205,91
26.1390,87
26.1576,90
26.1762,112
26.1948,100
26.2133,85
26.2319,91
26.2505,93
26.2691,84
26.2876,100
26.3062,74
26.3248,107
26.3434,103
26.3619,91
26.3805,96
26.3991,81
26.4177,94
26.4362,101
26.4548,96
26.4734,110
26.4920,89
26.5105,63
26.5291,123
26.5477,92
26.5663,104
26.5848,82
26.6034,96
26.6220,88
26.6406,95
26.6591,91
26.6777,95
26.6963,96
26.7149,94
26.7335,109
26.7520,103
26.7706,83
26.7892,113
26.8078,88
26.8263,89
26.8449,91
26.8635,90
26.8821,73
26.9006,96
26.9192,96
26.9378,85
26.9564,84
26.9749,97
26.9935,80
27.0121,105
27.0307,96
27.0492,99
27.0678,100
27.0864,98
27.1050,105
27.1235,104
27.1421,109
27.1607,119
27.1793,112
27.1978,137
27.2164,114
27.2350,100
27.2536,105
27.2721,118
27.2907,117
27.3093,103
27.3279,95
27.3464,86
27.3650,87
27.3836,90
27.4022,96
27.4207,103
27.4393,95
27.4579,91
27.4765,91
27.4951,98
27.5136,96
27.5322,102
27.5508,91
27.5694,79
27.5879,93
27.6065,83
27.6251,86
27.6437,77
27.6622,85
27.6808,84
27.6994,87
27.7180,79
27.7365,78
27.7551,108
27.7737,95
27.7923,91
27.8108,83
27.8294,85
27.8480,89
27.8666,71
27.8851,91
27.9037,95
27.9223,90
27.9409,80
27.9594,95
27.9780,104
27.9966,93
28.0152,78
28.0337,75
28.0523,100
28.0709,83
28.0895,77
28.1080,72
28.1266,84
28.1452,92
28.1638,109
28.1823,95
28.2009,97
28.2195,87
28.2381,82
28.2567,94
28.2752,76
28.2938,89
28.3124,85
28.3310,77
28.3495,80
28.3681,83
28.3867,80
28.4053,86
28.4238,85
28.4424,93
28.4610,93
28.4796,76
28.4981,78
28.5167,83
28.5353,97
28.5539,92
28.5724,82
28.5910,87
28.6096,75
28.6282,79
28.6467,78
28.6653,74
28.6839,83
28.7025,69
28.7210,77
28.7396,85
28.7582,72
28.7768,86
28.7953,75
28.8139,92
28.8325,73
28.8511,86
28.8696,79
28.8882,93
28.9068,89
28.9254,88
28.9439,85
28.9625,99
28.9811,69
28.9997,101
29.0183,93
29.0368,83
29.0554,67
29.0740,68
29.0926,69
29.1111,79
29.1297,80
29.1483,75
29.1669,78
29.1854,90
29.2040,97
29.2226,73
29.2412,69
29.2597,88
29.2783,76
29.2969,104
29.3155,84
29.3340,76
29.3526,67
29.3712,83
29.3898,65
29.4083,73
29.4269,58
29.4455,61
29.4641,74
29.4826,92
29.5012,90
29.5198,67
29.5384,76
29.5569,85
29.5755,77
29.5941,72
29.6127,69
29.6312,79
29.6498,70
29.6684,55
29.6870,72
29.7055,94
29.7241,72
29.7427,75
29.7613,82
29.7799,78
29.7984,71
29.8170,75
29.8356,64
29.8542,78
29.8727,95
29.8913,79
29.9099,64
29.9285,78
29.9470,103
29.9656,75
29.9842,88
30.0028,78
30.0213,65
30.0399,70
30.0585,78
30.0771,79
30.0956,74
30.1142,88
30.1328,71
30.1514,72
30.1699,69
30.1885,78
30.2071,85
30.2257,86
30.2442,70
30.2628,68
30.2814,86
30.3000,86
30.3185,86
30.3371,88
30.3557,116
30.3743,167
30.3928,186
30.4114,135
30.4300,105
30.4486,108
30.4671,146
30.4857,117
30.5043,84
30.5229,91
30.5415,78
30.5600,84
30.5786,73
30.5972,72
30.6158,69
30.6343,71
30.6529,78
30.6715,69
30.6901,77
30.7086,73
30.7272,72
30.7458,86
30.7644,70
30.7829,56
30.8015,70
30.8201,85
30.8387,65
30.8572,84
30.8758,51
30.8944,66
30.9130,61
30.9315,92
30.9501,61
30.9687,72
30.9873,63
31.0058,73
31.0244,76
31.0430,58
31.0616,73
31.0801,82
31.0987,64
31.1173,67
31.1359,79
31.1544,67
31.1730,55
31.1916,72
31.2102,79
31.2287,72
31.2473,64
31.2659,69
31.2845,65
31.3030,63
31.3216,83
31.3402,79
31.3588,74
31.3774,69
31.3959,80
31.4145,53
31.4331,63
31.4517,71
31.4702,59
31.4888,72
31.5074,66
31.5260,71
31.5445,67
31.5631,56
31.5817,67
31.6003,60
31.6188,74
31.6374,69
31.6560,75
31.6746,65
31.6931,55
31.7117,57
31.7303,67
31.7489,66
31.7674,71
31.7860,75
31.8046,68
31.8232,67
31.8417,66
31.8603,59
31.8789,63
31.8975,44
31.9160,67
31.9346,66
31.9532,73
31.9718,61
31.9903,64
32.0089,66
32.0275,75
32.0461,63
32.0646,58
32.0832,62
32.1018,63
32.1204,62
32.1390,72
32.1575,63
32.1761,75
32.1947,72
32.2133,65
32.2318,55
32.2504,59
32.2690,83
32.2876,76
32.3061,95
32.3247,70
32.3433,66
32.3619,89
32.3804,73
32.3990,68
32.4176,66
32.4362,67
32.4547,75
32.4733,79
32.4919,77
32.5105,68
32.5290,62
32.5476,79
32.5662,61
32.5848,70
32.6033,68
32.6219,61
32.6405,85
32.6591,71
32.6776,75
32.6962,61
32.7148,45
32.7334,56
32.7519,76
32.7705,50
32.7891,52
32.8077,66
32.8262,54
32.8448,52
32.8634,56
32.8820,53
32.9006,49
32.9191,54
32.9377,56
32.9563,61
32.9749,49
32.9934,57
33.0120,58
33.0306,50
33.0492,59
33.0677,58
33.0863,75
33.1049,55
33.1235,46
33.1420,55
33.1606,59
33.1792,53
33.1978,54
33.2163,41
33.2349,61
33.2535,56
33.2721,54
33.2906,47
33.3092,66
33.3278,63
33.3464,50
33.3649,60
33.3835,55
33.4021,51
33.4207,59
33.4392,62
33.4578,50
33.4764,67
33.4950,59
33.5135,56
33.5321,53
33.5507,57
33.5693,51
33.5878,64
33.6064,51
33.6250,41
33.6436,56
33.6622,40
33.6807,49
33.6993,51
33.7179,49
33.7365,69
33.7550,79
33.7736,58
33.7922,57
33.8108,48
33.8293,51
33.8479,70
33.8665,56
33.8851,50
33.9036,60
33.9222,60
33.9408,68
33.9594,60
33.9779,62
33.9965,46
34.0151,55
34.0337,51
34.0522,58
34.0708,48
34.0894,54
34.1080,60
34.1265,57
34.1451,54
34.1637,65
34.1823,54
34.2008,54
34.2194,49
34.2380,54
34.2566,57
34.2751,46
34.2937,63
34.3123,52
34.3309,55
34.3494,51
34.3680,53
34.3866,62
34.4052,48
34.4238,53
34.4423,47
34.4609,51
34.4795,57
34.4981,47
34.5166,60
34.5352,45
34.5538,59
34.5724,55
34.5909,61
34.6095,65
34.6281,67
34.6467,63
34.6652,53
34.6838,70
34.7024,69
34.7210,78
34.7395,101
34.7581,64
34.7767,78
34.7953,74
34.8138,75
34.8324,75
34.8510,78
34.8696,63
34.8881,66
34.9067,67
34.9253,56
34.9439,57
34.9624,58
34.9810,58
34.9996,54
35.0182,59
35.0367,55
35.0553,55
35.0739,52
35.0925,49
35.1110,54
35.1296,60
35.1482,43
35.1668,57
35.1854,54
35.2039,50
35.2225,60
35.2411,46
35.2597,51
35.2782,56
35.2968,45
35.3154,51
35.3340,56
35.3525,65
35.3711,47
35.3897,44
35.4083,37
35.4268,52
35.4454,49
35.4640,52
35.4826,60
35.5011,46
35.5197,39
35.5383,66
35.5569,47
35.5754,54
35.5940,45
35.6126,56
35.6312,46
35.6497,47
35.6683,43
35.6869,49
35.7055,47
35.7240,45
35.7426,56
35.7612,59
35.7798,50
35.7983,44
35.8169,42
35.8355,44
35.8541,46
35.8726,42
35.8912,38
35.9098,51
35.9284,46
35.9469,51
35.9655,60
35.9841,42
36.0027,51
36.0213,49
36.0398,52
36.0584,52
36.0770,54
36.0956,43
36.1141,59
36.1327,45
36.1513,50
36.1699,39
36.1884,38
36.2070,51
36.2256,58
36.2442,56
36.2627,63
36.2813,53
36.2999,51
36.3185,46
36.3370,37
36.3556,51
36.3742,50
36.3928,41
36.4113,43
36.4299,45
36.4485,51
36.4671,47
36.4856,37
36.5042,48
36.5228,49
36.5414,42
36.5599,49
36.5785,41
36.5971,38
36.6157,53
36.6342,47
36.6528,38
36.6714,43
36.6900,41
36.7085,36
36.7271,40
36.7457,43
36.7643,52
36.7829,54
36.8014,57
36.8200,60
36.8386,53
36.8572,44
36.8757,51
36.8943,47
36.9129,51
36.9315,50
36.9500,38
36.9686,55
36.9872,47
37.0058,61
37.0243,58
37.0429,47
37.0615,44
37.0801,50
37.0986,32
37.1172,33
37.1358,48
37.1544,40
37.1729,33
37.1915,46
37.2101,39
37.2287,46
37.2472,47
37.2658,53
37.2844,54
37.3030,48
37.3215,39
37.3401,34
37.3587,43
37.3773,57
37.3958,50
37.4144,71
37.4330,81
37.4516,73
37.4701,71
37.4887,66
37.5073,57
37.5259,66
37.5445,64
37.5630,52
37.5816,47
37.6002,44
37.6188,60
37.6373,36
37.6559,38
37.6745,44
37.6931,47
37.7116,52
37.7302,46
37.7488,46
37.7674,41
37.7859,45
37.8045,33
37.8231,47
37.8417,42
37.8602,41
37.8788,37
37.8974,41
37.9160,55
37.9345,33
37.9531,50
37.9717,46
37.9903,42
38.0088,40
38.0274,51
38.0460,35
38.0646,34
38.0831,48
38.1017,35
38.1203,51
38.1389,34
38.1574,54
38.1760,43
38.1946,31
38.2132,49
38.2317,36
38.2503,45
38.2689,54
38.2875,34
38.3061,48
38.3246,42
38.3432,41
38.3618,47
38.3804,44
38.3989,39
38.4175,41
38.4361,31
38.4547,37
38.4732,49
38.4918,35
38.5104,45
38.5290,30
38.5475,49
38.5661,44
38.5847,40
38.6033,35
38.6218,39
38.6404,55
38.6590,42
38.6776,39
38.6961,51
38.7147,37
38.7333,37
38.7519,25
38.7704,42
38.7890,39
38.8076,36
38.8262,57
38.8447,45
38.8633,41
38.8819,51
38.9005,38
38.9190,48
38.9376,34
38.9562,28
38.9748,42
38.9933,36
39.0119,45
39.0305,39
39.0491,43
39.0677,32
39.0862,45
39.1048,45
39.1234,28
39.1420,33
39.1605,39
39.1791,43
39.1977,50
39.2163,29
39.2348,36
39.2534,47
39.2720,41
39.2906,43
39.3091,45
39.3277,43
39.3463,51
39.3649,30
39.3834,33
39.4020,45
39.4206,50
39.4392,45
39.4577,39
39.4763,47
39.4949,40
39.5135,47
39.5320,39
39.5506,28
39.5692,43
39.5878,37
39.6063,39
39.6249,36
39.6435,32
39.6621,37
39.6806,33
39.6992,30
39.7178,32
39.7364,41
39.7549,34
39.7735,33
39.7921,43
39.8107,32
39.8293,35
39.8478,44
39.8664,34
39.8850,42
39.9036,43
39.9221,34
39.9407,36
39.9593,35
39.9779,36
39.9964,39
40.0150,38
40.0336,49
40.0522,35
40.0707,47
40.0893,37
40.1079,40
40.1265,29
40.1450,37
40.1636,41
40.1822,38
40.2008,45
40.2193,37
40.2379,35
40.2565,36
40.2751,39
40.2936,40
40.3122,40
40.3308,37
40.3494,38
40.3679,35
40.3865,45
40.4051,41
40.4237,38
40.4422,33
40.4608,36
40.4794,43
40.4980,40
40.5165,48
40.5351,45
40.5537,44
40.5723,37
40.5908,40
40.6094,33
40.6280,42
40.6466,37
40.6652,50
40.6837,31
40.7023,44
40.7209,43
40.7395,42
40.7580,40
40.7766,35
40.7952,24
40.8138,33
40.8323,46
40.8509,50
40.8695,38
40.8881,34
40.9066,35
40.9252,47
40.9438,45
40.9624,54
40.9809,50
40.9995,40
41.0181,45
41.0367,36
41.0552,39
41.0738,43
41.0924,36
41.1110,41
41.1295,33
41.1481,34
41.1667,36
41.1853,43
41.2038,22
41.2224,28
41.2410,32
41.2596,35
41.2781,46
41.2967,29
41.3153,39
41.3339,49
41.3524,36
41.3710,32
41.3896,39
41.4082,29
41.4268,40
41.4453,43
41.4639,40
41.4825,37
41.5011,44
41.5196,39
41.5382,38
41.5568,47
41.5754,36
41.5939,33
41.6125,32
41.6311,37
41.6497,40
41.6682,47
41.6868,44
41.7054,34
41.7240,30
41.7425,32
41.7611,32
41.7797,22
41.7983,44
41.8168,30
41.8354,41
41.8540,34
41.8726,43
41.8911,31
41.9097,41
41.9283,30
41.9469,35
41.9654,41
41.9840,36
42.0026,48
42.0212,36
42.0397,39
42.0583,40
42.0769,40
42.0955,44
42.1140,44
42.1326,39
42.1512,35
42.1698,40
42.1884,28
42.2069,47
42.2255,42
42.2441,32
42.2627,36
42.2812,42
42.2998,29
42.3184,33
42.3370,35
42.3555,34
42.3741,35
42.3927,31
42.4113,40
42.4298,46
42.4484,27
42.4670,30
42.4856,34
42.5041,43
42.5227,48
42.5413,36
42.5599,44
42.5784,29
42.5970,42
42.6156,41
42.6342,44
42.6527,42
42.6713,48
42.6899,48
42.7085,41
42.7270,35
42.7456,46
42.7642,39
42.7828,32
42.8013,39
42.8199,26
42.8385,40
42.8571,29
42.8756,40
42.8942,41
42.9128,33
42.9314,39
42.9500,53
42.9685,32
42.9871,35
43.0057,35
43.0243,27
43.0428,35
43.0614,37
43.0800,35
43.0986,28
43.1171,45
43.1357,41
43.1543,38
43.1729,36
43.1914,44
43.2100,37
43.2286,51
43.2472,55
43.2657,39
43.2843,50
43.3029,44
43.3215,37
43.3400,52
43.3586,37
43.3772,45
43.3958,40
43.4143,37
43.4329,48
43.4515,49
43.4701,44
43.4886,55
43.5072,71
43.5258,57
43.5444,54
43.5629,39
43.5815,48
43.6001,48
43.6187,54
43.6372,55
43.6558,39
43.6744,41
43.6930,42
43.7116,41
43.7301,39
43.7487,41
43.7673,38
43.7859,38
43.8044,32
43.8230,25
43.8416,30
43.8602,43
43.8787,35
43.8973,35
43.9159,34
43.9345,31
43.9530,40
43.9716,35
43.9902,37
44.0088,38
44.0273,30
44.0459,45
44.0645,47
44.0831,40
44.1016,32
44.1202,32
44.1388,27
44.1574,35
44.1759,31
44.1945,38
44.2131,30
44.2317,41
44.2502,25
44.2688,27
44.2874,31
44.3060,32
44.3245,37
44.3431,32
44.3617,28
44.3803,31
44.3988,30
44.4174,33
44.4360,31
44.4546,40
44.4732,44
44.4917,39
44.5103,47
44.5289,46
44.5475,40
44.5660,34
44.5846,31
44.6032,52
44.6218,37
44.6403,48
44.6589,41
44.6775,33
44.6961,35
44.7146,48
44.7332,42
44.7518,29
44.7704,38
44.7889,40
44.8075,42
44.8261,37
44.8447,41
44.8632,26
44.8818,32
44.9004,38
44.9190,31
44.9375,31
44.9561,31
44.9747,41
44.9933,25
45.0118,32
45.0304,36
45.0490,48
45.0676,28
45.0861,29
45.1047,32
45.1233,33
45.1419,26
45.1604,33
45.1790,35
45.1976,33
45.2162,37
45.2347,35
45.2533,35
45.2719,26
45.2905,36
45.3091,30
45.3276,32
45.3462,32
45.3648,32
45.3834,33
45.4019,39
45.4205,28
45.4391,42
45.4577,41
45.4762,35
45.4948,31
45.5134,29
45.5320,46
45.5505,34
45.5691,40
45.5877,34
45.6063,33
45.6248,35
45.6434,27
45.6620,34
45.6806,36
45.6991,34
45.7177,28
45.7363,36
45.7549,32
45.7734,36
45.7920,41
45.8106,35
45.8292,30
45.8477,32
45.8663,40
45.8849,33
45.9035,30
45.9220,26
45.9406,30
45.9592,30
45.9778,30
45.9963,37
46.0149,29
46.0335,27
46.0521,27
46.0707,29
46.0892,37
46.1078,43
46.1264,28
46.1450,40
46.1635,28
46.1821,31
46.2007,30
46.2193,24
46.2378,36
46.2564,30
46.2750,27
46.2936,21
46.3121,43
46.3307,31
46.3493,28
46.3679,31
46.3864,31
46.4050,34
46.4236,30
46.4422,28
46.4607,34
46.4793,25
46.4979,29
46.5165,41
46.5350,34
46.5536,40
46.5722,32
46.5908,47
46.6093,39
46.6279,25
46.6465,38
46.6651,27
46.6836,43
46.7022,32
46.7208,42
46.7394,37
46.7579,35
46.7765,37
46.7951,31
46.8137,46
46.8323,43
46.8508,33
46.8694,35
46.8880,32
46.9066,27
46.9251,30
46.9437,37
46.9623,38
46.9809,22
46.9994,34
47.0180,26
47.0366,36
47.0552,38
47.0737,25
47.0923,31
47.1109,33
47.1295,34
47.1480,33
47.1666,33
47.1852,31
47.2038,30
47.2223,26
47.2409,31
47.2595,35
47.2781,23
47.2966,24
47.3152,33
47.3338,39
47.3524,28
47.3709,30
47.3895,28
47.4081,19
47.4267,28
47.4452,38
47.4638,31
47.4824,40
47.5010,29
47.5195,29
47.5381,29
47.5567,32
47.5753,38
47.5939,24
47.6124,30
47.6310,30
47.6496,35
47.6682,23
47.6867,31
47.7053,27
47.7239,35
47.7425,16
47.7610,32
47.7796,37
47.7982,37
47.8168,27
47.8353,29
47.8539,29
47.8725,35
47.8911,33
47.9096,30
47.9282,22
47.9468,29
47.9654,37
47.9839,28
48.0025,33
48.0211,30
48.0397,33
48.0582,33
48.0768,23
48.0954,34
48.1140,32
48.1325,40
48.1511,32
48.1697,29
48.1883,27
48.2068,34
48.2254,28
48.2440,43
48.2626,39
48.2811,35
48.2997,28
48.3183,29
48.3369,31
48.3555,44
48.3740,29
48.3926,29
48.4112,29
48.4298,33
48.4483,34
48.4669,30
48.4855,27
48.5041,33
48.5226,36
48.5412,21
48.5598,24
48.5784,30
48.5969,35
48.6155,28
48.6341,28
48.6527,17
48.6712,31
48.6898,40
48.7084,29
48.7270,22
48.7455,44
48.7641,46
48.7827,31
48.8013,28
48.8198,39
48.8384,25
48.8570,27
48.8756,32
48.8941,35
48.9127,38
48.9313,47
48.9499,58
48.9684,67
48.9870,49
49.0056,43
49.0242,50
49.0427,41
49.0613,43
49.0799,46
49.0985,47
49.1171,27
49.1356,35
49.1542,47
49.1728,34
49.1914,40
49.2099,27
49.2285,32
49.2471,33
49.2657,38
49.2842,27
49.3028,38
49.3214,39
49.3400,35
49.3585,35
49.3771,31
49.3957,34
49.4143,21
49.4328,28
49.4514,20
49.4700,32
49.4886,32
49.5071,28
49.5257,20
49.5443,35
49.5629,33
49.5814,26
49.6000,34
49.6186,37
49.6372,31
49.6557,25
49.6743,30
49.6929,23
49.7115,29
49.7300,27
49.7486,33
49.7672,35
49.7858,35
49.8043,23
49.8229,33
49.8415,31
49.8601,28
49.8786,42
49.8972,31
49.9158,34
49.9344,27
49.9530,37
49.9715,23
49.9901,32
50.0087,31
50.0273,26
50.0458,18
50.0644,34
50.0830,32
50.1016,37
50.1201,22
50.1387,35
50.1573,29
50.1759,23
50.1944,29
50.2130,37
50.2316,30
50.2502,33
50.2687,30
50.2873,27
50.3059,42
50.3245,29
50.3430,28
50.3616,32
50.3802,34
50.3988,35
50.4173,30
50.4359,39
50.4545,36
50.4731,33
50.4916,17
50.5102,28
50.5288,36
50.5474,19
50.5659,28
50.5845,35
50.6031,24
50.6217,30
50.6402,34
50.6588,40
50.6774,21
50.6960,23
50.7146,29
50.7331,36
50.7517,35
50.7703,32
50.7889,32
50.8074,24
50.8260,25
50.8446,39
50.8632,29
50.8817,40
50.9003,31
50.9189,26
50.9375,29
50.9560,24
50.9746,27
50.9932,33
51.0118,34
51.0303,23
51.0489,29
51.0675,30
51.0861,28
51.1046,26
51.1232,27
51.1418,38
51.1604,32
51.1789,27
51.1975,35
51.2161,22
51.2347,20
51.2532,33
51.2718,33
51.2904,29
51.3090,32
51.3275,34
51.3461,32
51.3647,37
51.3833,27
51.4018,36
51.4204,34
51.4390,32
51.4576,32
51.4762,22
51.4947,29
51.5133,30
51.5319,45
51.5505,32
51.5690,41
51.5876,26
51.6062,28
51.6248,22
51.6433,37
51.6619,26
51.6805,27
51.6991,33
51.7176,26
51.7362,25
51.7548,29
51.7734,29
51.7919,24
51.8105,30
51.8291,29
51.8477,37
51.8662,38
51.8848,33
51.9034,32
51.9220,28
51.9405,28
51.9591,29
51.9777,24
51.9963,31
52.0148,32
52.0334,27
52.0520,29
52.0706,36
52.0891,32
52.1077,30
52.1263,19
52.1449,24
52.1634,40
52.1820,26
52.2006,33
52.2192,21
52.2378,33
52.2563,29
52.2749,23
52.2935,23
52.3121,31
52.3306,23
52.3492,21
52.3678,30
52.3864,26
52.4049,32
52.4235,26
52.4421,26
52.4607,29
52.4792,30
52.4978,20
52.5164,27
52.5350,26
52.5535,29
52.5721,16
52.5907,16
52.6093,14
52.6278,32
52.6464,26
52.6650,26
52.6836,25
52.7021,32
52.7207,35
52.7393,25
52.7579,39
52.7764,24
52.7950,29
52.8136,26
52.8322,29
52.8507,23
52.8693,33
52.8879,39
52.9065,30
52.9250,26
52.9436,19
52.9622,21
52.9808,25
52.9994,33
53.0179,34
53.0365,26
53.0551,24
53.0737,28
53.0922,30
53.1108,18
53.1294,27
53.1480,38
53.1665,34
53.1851,27
53.2037,30
53.2223,23
53.2408,21
53.2594,30
53.2780,23
53.2966,36
53.3151,30
53.3337,27
53.3523,27
53.3709,27
53.3894,31
53.4080,32
53.4266,30
53.4452,30
53.4637,21
53.4823,22
53.5009,38
53.5195,30
53.5380,25
53.5566,17
53.5752,38
53.5938,22
53.6123,26
53.6309,32
53.6495,30
53.6681,28
53.6866,21
53.7052,33
53.7238,28
53.7424,30
53.7610,26
53.7795,34
53.7981,28
53.8167,38
53.8353,22
53.8538,26
53.8724,29
53.8910,28
53.9096,33
53.9281,33
53.9467,44
53.9653,37
53.9839,40
54.0024,37
54.0210,43
54.0396,33
54.0582,32
54.0767,27
54.0953,32
54.1139,33
54.1325,38
54.1510,34
54.1696,27
54.1882,25
54.2068,34
54.2253,45
54.2439,26
54.2625,34
54.2811,34
54.2996,29
54.3182,27
54.3368,23
54.3554,27
54.3739,24
54.3925,29
54.4111,18
54.4297,35
54.4482,39
54.4668,36
54.4854,36
54.5040,35
54.5225,23
54.5411,24
54.5597,21
54.5783,20
54.5969,22
54.6154,30
54.6340,33
54.6526,35
54.6712,26
54.6897,26
54.7083,28
54.7269,17
54.7455,30
54.7640,37
54.7826,31
54.8012,29
54.8198,29
54.8383,32
54.8569,20
54.8755,34
54.8941,37
54.9126,21
54.9312,31
54.9498,35
54.9684,32
54.9869,31
55.0055,21
55.0241,24
55.0427,28
55.0612,27
55.0798,18
55.0984,27
55.1170,15
55.1355,21
55.1541,28
55.1727,24
55.1913,24
55.2098,32
55.2284,26
55.2470,26
55.2656,23
55.2841,23
55.3027,26
55.3213,29
55.3399,28
55.3585,27
55.3770,24
55.3956,35
55.4142,22
55.4328,33
55.4513,20
55.4699,34
55.4885,27
55.5071,26
55.5256,17
55.5442,38
55.5628,26
55.5814,31
55.5999,23
55.6185,29
55.6371,27
55.6557,20
55.6742,34
55.6928,27
55.7114,30
55.7300,29
55.7485,29
55.7671,39
55.7857,27
55.8043,30
55.8228,32
55.8414,24
55.8600,23
55.8786,23
55.8971,27
55.9157,23
55.9343,30
55.9529,28
55.9714,30
55.9900,31
56.0086,30
56.0272,18
56.0457,26
56.0643,38
56.0829,30
56.1015,26
56.1201,29
56.1386,25
56.1572,31
56.1758,21
56.1944,22
56.2129,36
56.2315,41
56.2501,30
56.2687,36
56.2872,25
56.3058,27
56.3244,40
56.3430,34
56.3615,38
56.3801,34
56.3987,13
56.4173,29
56.4358,26
56.4544,26
56.4730,26
56.4916,28
56.5101,17
56.5287,25
56.5473,14
56.5659,28
56.5844,26
56.6030,29
56.6216,32
56.6402,34
56.6587,28
56.6773,29
56.6959,37
56.7145,21
56.7330,30
56.7516,29
56.7702,30
56.7888,34
56.8073,27
56.8259,28
56.8445,25
56.8631,25
56.8817,33
56.9002,23
56.9188,21
56.9374,33
56.9560,29
56.9745,30
56.9931,22
57.0117,24
57.0303,25
57.0488,34
57.0674,33
57.0860,17
57.1046,30
57.1231,25
57.1417,28
57.1603,25
57.1789,27
57.1974,34
57.2160,28
57.2346,24
57.2532,25
57.2717,30
57.2903,27
57.3089,22
57.3275,24
57.3460,33
57.3646,36
57.3832,27
57.4018,19
57.4203,25
57.4389,31
57.4575,28
57.4761,28
57.4946,23
57.5132,31
57.5318,22
57.5504,38
57.5689,26
57.5875,24
57.6061,34
57.6247,30
57.6433,15
57.6618,15
57.6804,23
57.6990,26
57.7176,34
57.7361,33
57.7547,25
57.7733,25
57.7919,22
57.8104,28
57.8290,36
57.8476,22
57.8662,24
57.8847,28
57.9033,20
57.9219,23
57.9405,32
57.9590,19
57.9776,33
57.9962,31
58.0148,30
58.0333,24
58.0519,25
58.0705,23
58.0891,27
58.1076,27
58.1262,21
58.1448,23
58.1634,21
58.1819,26
58.2005,31
58.2191,33
58.2377,30
58.2562,26
58.2748,31
58.2934,29
58.3120,33
58.3305,29
58.3491,27
58.3677,29
58.3863,22
58.4049,17
58.4234,27
58.4420,15
58.4606,33
58.4792,31
58.4977,44
58.5163,25
58.5349,19
58.5535,23
58.5720,24
58.5906,26
58.6092,22
58.6278,31
58.6463,26
58.6649,28
58.6835,24
58.7021,22
58.7206,25
58.7392,14
58.7578,22
58.7764,32
58.7949,20
58.8135,37
58.8321,31
58.8507,29
58.8692,36
58.8878,27
58.9064,25
58.9250,26
58.9435,28
58.9621,23
58.9807,24
58.9993,41
59.0178,21
59.0364,31
59.0550,23
59.0736,39
59.0921,23
59.1107,22
59.1293,24
59.1479,21
59.1664,31
59.1850,39
59.2036,19
59.2222,29
59.2408,29
59.2593,27
59.2779,26
59.2965,23
59.3151,35
59.3336,25
59.3522,33
59.3708,43
59.3894,28
59.4079,26
59.4265,27
59.4451,27
59.4637,22
59.4822,29
59.5008,24
59.5194,35
59.5380,23
59.5565,32
59.5751,26
59.5937,35
59.6123,28
59.6308,31
59.6494,24
59.6680,24
59.6866,27
59.7051,26
59.7237,33
59.7423,21
59.7609,29
59.7794,24
59.7980,31
59.8166,27
59.8352,24
59.8537,23
59.8723,21
59.8909,21
59.9095,23
59.9280,23
59.9466,22
59.9652,29
59.9838,25
60.0024,18
