; (content of file Y:\Sam\Apurva-07-20-2022\puck4\ML_20220718_1_SJD_0_LaB6-2min.raw)
_FILEVERSION = 3
_SAMPLE = ML_20220718_1_SJD_0_LaB6-2mi
_+SAMPLE = 
_SITE = USA
_USER = Administrator
_GONIOMETER_CODE = 20
; Goniometer : D8 theta/2theta, stage : Unknown
_ATTACHMENTS_CODE = 0
_GONIOMETER_RADIUS = 200.5
_FIXED_DIVSLIT = 0.6
_FIXED_SAMPLESLIT = 0
_SOLLER_SLITS = 2
_FIXED_DETSLIT = 9.55
_MONOCHROMATOR = 0
; Incident beam monochromator : None
_SOLLER_SLITS_2 = N
_THIN_FILM = N
_BETA_FILTER = Y
_FIXED_ANTISLIT = 5.89
_ANALYZER_CODE = 0
; Received beam analyzer : None
_DATEMEASURED = "21-Jul-2022 02:49:06"
_WL_UNIT = A
_WL1 = 1.5406
_WL2 = 1.54439
_WL3 = 1.39222
_WLRATIO = 0.5
_ANODE = Cu
_V4_INF_CREATOR = XRDWizard
_V4_INF_CREATOR_VERSION = V2.9.0.22
_V4_INF_WIZARD_VERSION = V2.9.0.22
_V4_INF_WIZARD_ADDINS = V2.9.0.22
_V4_INF_WIZARD_DOCTYPE = XRD
_V4_INF_OSUSER = McQueenLab
_V4_INF_USER = Administrator
_V4_INF_SITE = USA
_V4_INF_SAMPLEID = ML_20220718_1_SJD_0_LaB6-2mi

; Data for range 1
_DRIVE = COUPLED
_STEPTIME = 5.64
_STEPSIZE = 0.0185756
_STEPMODE = C
_START = 5
_THETA = 2.5
_2THETA = 5
_KHI = 0
_PHI = 0
_X = 0
_Y = 0
_Z = 0
_DETECTOR = 5
; Detector type : Unknown
_DETECTORSLIT = unkn
_AUX1 = 0
_AUX2 = 0
_AUX3 = 0
_TIMESTARTED = 15
_TEMP_RATE = -1
_TEMP_DELAY = -1
_KV = 40
_MA = 40
_RANGE_WL = 1.5406
_3DPLANE = 0
_V4_ADDITIONALDETECTOR = 257
_V4_PSD2THETA = 3.3708
_V4_PSDCHANNEL1 = 0
_V4_PSDAPERTURE = 12.68
_V4_PSDTYPE = 5
_V4_PSDFIXED = 0
_V4_COUNTERS_MASK = 4096
_V4_DRIVES_MASK = 0
_V4_ENCODERS_MASK = 0
_2THETACOUNTS = 1
; 2THETA  PSD
   5.0000        159
   5.0186        146
   5.0372        138
   5.0557        128
   5.0743        114
   5.0929        148
   5.1115        126
   5.1300        108
   5.1486        110
   5.1672        127
   5.1858        121
   5.2043        138
   5.2229        114
   5.2415        123
   5.2601        113
   5.2786        137
   5.2972        131
   5.3158        107
   5.3344        129
   5.3529        103
   5.3715        112
   5.3901        125
   5.4087        123
   5.4272        119
   5.4458        118
   5.4644        101
   5.4830        118
   5.5015        117
   5.5201        105
   5.5387        103
   5.5573        103
   5.5758        106
   5.5944        126
   5.6130        121
   5.6316         88
   5.6501        115
   5.6687        108
   5.6873        114
   5.7059        113
   5.7244        110
   5.7430        113
   5.7616        104
   5.7802         87
   5.7988        114
   5.8173         94
   5.8359        116
   5.8545        124
   5.8731         98
   5.8916        105
   5.9102         95
   5.9288        105
   5.9474        100
   5.9659        115
   5.9845        100
   6.0031         83
   6.0217         97
   6.0402        109
   6.0588        102
   6.0774         96
   6.0960         99
   6.1145         94
   6.1331        106
   6.1517        100
   6.1703        100
   6.1888         95
   6.2074         76
   6.2260         81
   6.2446         98
   6.2631         94
   6.2817        100
   6.3003        100
   6.3189         79
   6.3374        103
   6.3560         92
   6.3746         79
   6.3932         80
   6.4117         79
   6.4303         85
   6.4489         75
   6.4675         92
   6.4860         85
   6.5046         77
   6.5232         94
   6.5418         82
   6.5604         87
   6.5789         91
   6.5975         65
   6.6161         76
   6.6347         89
   6.6532         77
   6.6718         81
   6.6904         88
   6.7090         84
   6.7275         96
   6.7461         84
   6.7647         92
   6.7833         81
   6.8018         91
   6.8204         79
   6.8390         82
   6.8576         73
   6.8761         76
   6.8947         77
   6.9133         81
   6.9319         78
   6.9504         75
   6.9690         77
   6.9876         78
   7.0062         73
   7.0247         63
   7.0433         75
   7.0619         84
   7.0805         88
   7.0990         89
   7.1176         69
   7.1362         73
   7.1548         62
   7.1733         81
   7.1919         85
   7.2105         77
   7.2291         65
   7.2476         88
   7.2662         71
   7.2848         61
   7.3034         66
   7.3220         75
   7.3405         79
   7.3591         84
   7.3777         80
   7.3963         71
   7.4148         72
   7.4334         62
   7.4520         87
   7.4706         85
   7.4891         91
   7.5077         91
   7.5263         94
   7.5449         90
   7.5634         78
   7.5820         85
   7.6006         87
   7.6192         88
   7.6377         83
   7.6563         84
   7.6749         74
   7.6935         81
   7.7120         96
   7.7306         87
   7.7492         86
   7.7678         86
   7.7863         80
   7.8049         86
   7.8235         95
   7.8421         89
   7.8606         84
   7.8792         74
   7.8978         78
   7.9164         93
   7.9349         93
   7.9535         92
   7.9721        108
   7.9907         91
   8.0092         96
   8.0278         94
   8.0464         95
   8.0650         88
   8.0835         97
   8.1021         89
   8.1207         90
   8.1393         80
   8.1579         80
   8.1764         89
   8.1950         93
   8.2136         92
   8.2322         82
   8.2507         84
   8.2693         94
   8.2879        117
   8.3065        104
   8.3250         98
   8.3436         92
   8.3622         91
   8.3808         86
   8.3993        103
   8.4179         91
   8.4365         88
   8.4551        107
   8.4736         73
   8.4922         79
   8.5108         91
   8.5294         91
   8.5479         98
   8.5665         97
   8.5851        107
   8.6037         83
   8.6222         89
   8.6408         96
   8.6594         99
   8.6780         91
   8.6965        109
   8.7151         84
   8.7337         84
   8.7523        108
   8.7708        118
   8.7894        120
   8.8080        115
   8.8266        104
   8.8451         92
   8.8637        100
   8.8823        118
   8.9009         97
   8.9195        101
   8.9380         96
   8.9566        115
   8.9752        111
   8.9938         93
   9.0123         97
   9.0309        102
   9.0495        101
   9.0681        102
   9.0866         79
   9.1052        109
   9.1238         85
   9.1424         98
   9.1609        118
   9.1795         96
   9.1981        143
   9.2167        112
   9.2352         98
   9.2538        112
   9.2724         98
   9.2910        106
   9.3095        109
   9.3281        103
   9.3467         91
   9.3653        103
   9.3838        107
   9.4024        103
   9.4210        122
   9.4396        128
   9.4581         94
   9.4767        115
   9.4953         96
   9.5139         98
   9.5324        127
   9.5510         93
   9.5696        104
   9.5882        107
   9.6067        106
   9.6253        120
   9.6439         95
   9.6625        125
   9.6811        119
   9.6996         98
   9.7182        105
   9.7368         92
   9.7554        115
   9.7739        126
   9.7925         97
   9.8111        122
   9.8297        119
   9.8482        115
   9.8668        116
   9.8854        118
   9.9040        102
   9.9225        113
   9.9411        106
   9.9597        109
   9.9783        105
   9.9968        108
  10.0154        113
  10.0340        105
  10.0526        123
  10.0711        120
  10.0897        119
  10.1083        127
  10.1269        108
  10.1454        144
  10.1640        132
  10.1826        111
  10.2012        138
  10.2197        113
  10.2383        123
  10.2569        107
  10.2755        126
  10.2940         98
  10.3126        134
  10.3312        112
  10.3498        108
  10.3683        132
  10.3869        100
  10.4055        122
  10.4241        122
  10.4427        124
  10.4612        104
  10.4798        112
  10.4984        133
  10.5170        120
  10.5355        111
  10.5541        102
  10.5727         97
  10.5913        108
  10.6098        120
  10.6284        119
  10.6470        123
  10.6656        104
  10.6841        120
  10.7027        110
  10.7213        117
  10.7399        127
  10.7584        104
  10.7770        129
  10.7956        101
  10.8142        109
  10.8327        118
  10.8513        110
  10.8699        112
  10.8885        103
  10.9070        133
  10.9256        124
  10.9442        127
  10.9628        107
  10.9813        101
  10.9999        121
  11.0185        122
  11.0371        107
  11.0556         95
  11.0742        127
  11.0928        109
  11.1114         99
  11.1299        106
  11.1485        127
  11.1671        119
  11.1857        114
  11.2043        108
  11.2228        113
  11.2414        101
  11.2600        114
  11.2786        112
  11.2971        127
  11.3157        112
  11.3343        112
  11.3529         97
  11.3714        120
  11.3900        119
  11.4086         89
  11.4272        131
  11.4457        101
  11.4643        133
  11.4829        127
  11.5015        114
  11.5200        108
  11.5386        120
  11.5572         95
  11.5758        128
  11.5943         99
  11.6129        129
  11.6315         99
  11.6501        105
  11.6686        111
  11.6872        101
  11.7058        107
  11.7244        118
  11.7429        122
  11.7615        126
  11.7801         90
  11.7987        117
  11.8172        107
  11.8358        111
  11.8544         90
  11.8730        107
  11.8915        120
  11.9101        113
  11.9287        106
  11.9473        115
  11.9659        117
  11.9844        109
  12.0030        111
  12.0216         99
  12.0402        118
  12.0587        124
  12.0773        106
  12.0959        110
  12.1145        115
  12.1330        101
  12.1516        100
  12.1702        129
  12.1888        119
  12.2073         99
  12.2259        100
  12.2445         95
  12.2631         98
  12.2816         97
  12.3002        106
  12.3188        115
  12.3374        104
  12.3559        112
  12.3745         98
  12.3931        102
  12.4117        116
  12.4302        108
  12.4488        116
  12.4674        121
  12.4860        118
  12.5045         88
  12.5231        108
  12.5417        101
  12.5603         89
  12.5788        104
  12.5974        106
  12.6160        101
  12.6346        115
  12.6531        101
  12.6717         91
  12.6903         78
  12.7089        104
  12.7274        120
  12.7460         88
  12.7646        101
  12.7832        104
  12.8018        106
  12.8203        109
  12.8389        104
  12.8575         97
  12.8761         98
  12.8946         98
  12.9132         92
  12.9318        112
  12.9504         97
  12.9689        107
  12.9875         77
  13.0061         94
  13.0247         72
  13.0432         92
  13.0618        107
  13.0804         98
  13.0990         84
  13.1175        100
  13.1361         98
  13.1547         96
  13.1733         83
  13.1918         95
  13.2104        103
  13.2290         86
  13.2476        106
  13.2661         82
  13.2847        106
  13.3033        102
  13.3219         81
  13.3404         97
  13.3590         98
  13.3776         83
  13.3962        100
  13.4147         95
  13.4333         75
  13.4519         83
  13.4705         87
  13.4890         98
  13.5076        103
  13.5262         86
  13.5448        101
  13.5634        100
  13.5819         89
  13.6005        100
  13.6191        102
  13.6377         85
  13.6562         89
  13.6748        124
  13.6934         92
  13.7120         81
  13.7305         86
  13.7491         83
  13.7677         86
  13.7863         95
  13.8048         98
  13.8234         93
  13.8420         88
  13.8606         82
  13.8791         98
  13.8977         91
  13.9163         83
  13.9349         85
  13.9534         98
  13.9720         89
  13.9906         79
  14.0092         85
  14.0277         83
  14.0463         95
  14.0649         82
  14.0835         83
  14.1020         77
  14.1206         79
  14.1392         75
  14.1578         87
  14.1763         80
  14.1949         89
  14.2135         84
  14.2321         90
  14.2506         99
  14.2692         94
  14.2878         88
  14.3064         79
  14.3250         81
  14.3435         69
  14.3621        121
  14.3807         87
  14.3993        102
  14.4178         73
  14.4364         84
  14.4550         80
  14.4736         85
  14.4921         73
  14.5107         74
  14.5293         64
  14.5479         88
  14.5664        100
  14.5850         72
  14.6036         82
  14.6222         86
  14.6407         71
  14.6593         75
  14.6779         88
  14.6965         68
  14.7150         86
  14.7336         79
  14.7522         82
  14.7708        100
  14.7893         81
  14.8079         77
  14.8265        102
  14.8451         75
  14.8636         84
  14.8822         79
  14.9008         96
  14.9194         72
  14.9379         70
  14.9565         73
  14.9751         69
  14.9937         93
  15.0122         68
  15.0308         95
  15.0494         84
  15.0680         74
  15.0866         85
  15.1051         69
  15.1237         68
  15.1423         86
  15.1609         74
  15.1794         88
  15.1980         80
  15.2166         72
  15.2352         97
  15.2537         83
  15.2723         64
  15.2909         85
  15.3095         81
  15.3280         87
  15.3466         85
  15.3652         79
  15.3838         85
  15.4023         59
  15.4209         84
  15.4395         76
  15.4581         76
  15.4766         85
  15.4952         80
  15.5138         84
  15.5324         97
  15.5509         75
  15.5695         87
  15.5881         64
  15.6067         89
  15.6252         75
  15.6438         74
  15.6624         79
  15.6810         76
  15.6995         86
  15.7181         87
  15.7367         89
  15.7553         85
  15.7738         92
  15.7924         79
  15.8110         73
  15.8296         84
  15.8482         87
  15.8667         82
  15.8853         88
  15.9039         75
  15.9225         75
  15.9410         79
  15.9596         84
  15.9782         77
  15.9968         80
  16.0153         62
  16.0339         81
  16.0525         87
  16.0711         82
  16.0896         84
  16.1082         80
  16.1268         90
  16.1454         73
  16.1639         83
  16.1825         73
  16.2011         81
  16.2197         71
  16.2382         78
  16.2568         79
  16.2754         74
  16.2940         84
  16.3125         65
  16.3311         92
  16.3497         91
  16.3683         91
  16.3868         85
  16.4054         73
  16.4240         85
  16.4426         88
  16.4611         78
  16.4797         66
  16.4983         80
  16.5169         64
  16.5354         87
  16.5540         80
  16.5726         96
  16.5912         88
  16.6097         86
  16.6283         77
  16.6469         69
  16.6655         81
  16.6841         73
  16.7026         77
  16.7212         69
  16.7398         85
  16.7584         71
  16.7769         81
  16.7955         82
  16.8141         78
  16.8327         83
  16.8512         76
  16.8698         84
  16.8884         64
  16.9070         81
  16.9255         85
  16.9441         78
  16.9627         81
  16.9813         76
  16.9998         86
  17.0184         82
  17.0370         76
  17.0556         82
  17.0741         78
  17.0927         75
  17.1113         82
  17.1299         73
  17.1484         78
  17.1670         92
  17.1856         71
  17.2042         60
  17.2227         74
  17.2413         69
  17.2599         74
  17.2785         68
  17.2970         87
  17.3156         91
  17.3342         82
  17.3528         77
  17.3713        103
  17.3899        102
  17.4085         79
  17.4271         88
  17.4457         83
  17.4642         82
  17.4828         74
  17.5014         64
  17.5200         79
  17.5385         81
  17.5571         72
  17.5757         75
  17.5943         81
  17.6128         97
  17.6314         73
  17.6500         75
  17.6686         95
  17.6871         82
  17.7057         70
  17.7243         70
  17.7429         78
  17.7614         84
  17.7800         79
  17.7986         94
  17.8172         82
  17.8357         73
  17.8543         76
  17.8729         74
  17.8915         70
  17.9100         82
  17.9286         79
  17.9472         75
  17.9658         63
  17.9843         71
  18.0029         77
  18.0215         80
  18.0401         78
  18.0586         86
  18.0772         74
  18.0958         75
  18.1144         82
  18.1329         81
  18.1515         71
  18.1701         93
  18.1887         82
  18.2073         85
  18.2258         84
  18.2444         83
  18.2630         77
  18.2816        105
  18.3001         79
  18.3187         89
  18.3373         90
  18.3559         72
  18.3744         88
  18.3930         76
  18.4116         89
  18.4302         75
  18.4487         73
  18.4673         76
  18.4859         77
  18.5045         83
  18.5230         91
  18.5416         77
  18.5602         85
  18.5788         71
  18.5973         74
  18.6159         92
  18.6345         78
  18.6531         85
  18.6716         87
  18.6902         98
  18.7088         74
  18.7274         73
  18.7459         72
  18.7645         91
  18.7831         82
  18.8017         77
  18.8202         82
  18.8388         80
  18.8574         87
  18.8760         83
  18.8945         85
  18.9131         80
  18.9317        105
  18.9503         76
  18.9689         83
  18.9874         91
  19.0060         83
  19.0246         88
  19.0432         74
  19.0617         82
  19.0803         76
  19.0989         71
  19.1175         83
  19.1360         83
  19.1546         81
  19.1732         88
  19.1918         98
  19.2103         89
  19.2289         91
  19.2475         68
  19.2661         91
  19.2846         82
  19.3032         78
  19.3218         80
  19.3404         98
  19.3589         82
  19.3775         88
  19.3961        104
  19.4147         71
  19.4332         91
  19.4518         94
  19.4704         81
  19.4890         74
  19.5075         72
  19.5261         82
  19.5447        102
  19.5633         92
  19.5818         89
  19.6004         92
  19.6190         75
  19.6376         88
  19.6561         91
  19.6747         81
  19.6933         85
  19.7119         80
  19.7305         82
  19.7490         91
  19.7676         75
  19.7862         73
  19.8048         87
  19.8233         77
  19.8419         82
  19.8605        101
  19.8791         83
  19.8976         90
  19.9162         78
  19.9348         87
  19.9534         68
  19.9719         77
  19.9905         87
  20.0091         80
  20.0277        100
  20.0462         75
  20.0648         91
  20.0834         88
  20.1020         98
  20.1205         91
  20.1391         88
  20.1577         84
  20.1763         94
  20.1948         95
  20.2134         98
  20.2320         82
  20.2506         83
  20.2691        104
  20.2877         95
  20.3063         85
  20.3249         88
  20.3434         79
  20.3620         87
  20.3806        106
  20.3992         88
  20.4177         81
  20.4363        101
  20.4549        106
  20.4735         87
  20.4921         94
  20.5106         94
  20.5292         81
  20.5478         83
  20.5664         82
  20.5849         98
  20.6035         96
  20.6221        105
  20.6407         90
  20.6592         94
  20.6778         75
  20.6964        101
  20.7150        100
  20.7335         96
  20.7521         90
  20.7707         83
  20.7893         97
  20.8078         84
  20.8264         74
  20.8450         87
  20.8636         92
  20.8821         86
  20.9007         80
  20.9193        104
  20.9379         97
  20.9564         82
  20.9750         96
  20.9936         98
  21.0122        101
  21.0307         89
  21.0493        112
  21.0679         96
  21.0865        105
  21.1050        113
  21.1236        108
  21.1422        122
  21.1608        125
  21.1793        135
  21.1979        152
  21.2165        148
  21.2351        147
  21.2537        160
  21.2722        158
  21.2908        167
  21.3094        187
  21.3280        211
  21.3465        262
  21.3651        183
  21.3837        168
  21.4023        188
  21.4208        127
  21.4394        106
  21.4580         97
  21.4766         78
  21.4951        108
  21.5137         92
  21.5323         99
  21.5509         98
  21.5694         88
  21.5880        112
  21.6066        100
  21.6252        103
  21.6437         82
  21.6623         97
  21.6809         84
  21.6995        100
  21.7180         99
  21.7366         93
  21.7552        100
  21.7738        113
  21.7923         88
  21.8109         91
  21.8295        104
  21.8481         93
  21.8666         93
  21.8852         84
  21.9038         98
  21.9224        106
  21.9409        106
  21.9595         76
  21.9781         94
  21.9967         93
  22.0152         95
  22.0338         90
  22.0524         92
  22.0710        105
  22.0896         94
  22.1081         98
  22.1267         88
  22.1453        109
  22.1639         93
  22.1824        103
  22.2010         93
  22.2196         87
  22.2382        109
  22.2567         77
  22.2753         94
  22.2939        107
  22.3125         90
  22.3310         91
  22.3496         97
  22.3682        107
  22.3868         77
  22.4053         92
  22.4239        101
  22.4425         93
  22.4611        102
  22.4796         87
  22.4982        100
  22.5168         95
  22.5354        102
  22.5539         96
  22.5725         99
  22.5911         89
  22.6097         87
  22.6282         95
  22.6468         95
  22.6654         95
  22.6840         95
  22.7025         88
  22.7211         96
  22.7397         81
  22.7583         92
  22.7768        105
  22.7954         94
  22.8140         99
  22.8326         93
  22.8512         89
  22.8697        108
  22.8883         91
  22.9069         95
  22.9255         91
  22.9440        107
  22.9626        110
  22.9812         97
  22.9998         77
  23.0183         87
  23.0369         91
  23.0555         85
  23.0741         92
  23.0926        102
  23.1112         88
  23.1298         82
  23.1484         98
  23.1669        115
  23.1855         82
  23.2041        106
  23.2227        104
  23.2412        108
  23.2598        102
  23.2784        100
  23.2970        103
  23.3155        104
  23.3341        105
  23.3527        102
  23.3713         97
  23.3898         84
  23.4084        104
  23.4270         92
  23.4456         79
  23.4641         96
  23.4827         97
  23.5013        101
  23.5199         94
  23.5384         95
  23.5570         87
  23.5756         95
  23.5942         99
  23.6128        107
  23.6313         85
  23.6499         93
  23.6685         93
  23.6871        112
  23.7056         95
  23.7242        111
  23.7428         89
  23.7614         92
  23.7799        105
  23.7985         93
  23.8171        104
  23.8357         78
  23.8542        117
  23.8728        110
  23.8914        103
  23.9100        100
  23.9285         90
  23.9471        102
  23.9657         86
  23.9843        101
  24.0028        103
  24.0214         99
  24.0400         93
  24.0586         99
  24.0771        108
  24.0957         87
  24.1143        109
  24.1329        111
  24.1514        113
  24.1700        108
  24.1886         93
  24.2072         96
  24.2257        103
  24.2443        108
  24.2629        109
  24.2815        101
  24.3000         99
  24.3186        101
  24.3372        113
  24.3558         97
  24.3744        112
  24.3929        107
  24.4115        108
  24.4301        110
  24.4487         88
  24.4672         89
  24.4858         95
  24.5044         94
  24.5230         95
  24.5415        101
  24.5601         90
  24.5787        108
  24.5973        103
  24.6158         94
  24.6344         97
  24.6530        100
  24.6716         93
  24.6901         97
  24.7087        100
  24.7273         83
  24.7459         96
  24.7644         90
  24.7830         99
  24.8016         86
  24.8202        108
  24.8387         97
  24.8573         76
  24.8759        104
  24.8945        101
  24.9130         90
  24.9316         92
  24.9502        102
  24.9688         92
  24.9873        108
  25.0059         98
  25.0245        102
  25.0431         90
  25.0616        105
  25.0802        104
  25.0988         93
  25.1174         87
  25.1360         94
  25.1545        117
  25.1731         98
  25.1917        107
  25.2103         94
  25.2288        115
  25.2474         89
  25.2660        108
  25.2846         86
  25.3031         81
  25.3217        102
  25.3403         95
  25.3589        104
  25.3774         89
  25.3960        111
  25.4146         99
  25.4332         91
  25.4517         96
  25.4703         96
  25.4889         95
  25.5075        100
  25.5260         87
  25.5446         85
  25.5632         99
  25.5818         81
  25.6003         92
  25.6189         94
  25.6375         89
  25.6561         89
  25.6746         91
  25.6932         93
  25.7118         99
  25.7304         78
  25.7489         88
  25.7675         95
  25.7861         65
  25.8047         92
  25.8232        119
  25.8418         97
  25.8604         86
  25.8790         86
  25.8976         93
  25.9161         83
  25.9347         93
  25.9533         86
  25.9719         83
  25.9904         78
  26.0090         92
  26.0276         83
  26.0462         90
  26.0647         93
  26.0833         83
  26.1019        104
  26.1205         89
  26.1390         90
  26.1576         93
  26.1762         92
  26.1948         84
  26.2133         98
  26.2319        112
  26.2505         98
  26.2691         83
  26.2876         96
  26.3062         86
  26.3248        108
  26.3434        102
  26.3619         84
  26.3805         94
  26.3991         89
  26.4177         92
  26.4362         77
  26.4548         93
  26.4734         97
  26.4920         87
  26.5105         80
  26.5291         91
  26.5477         79
  26.5663         88
  26.5848        104
  26.6034        100
  26.6220         86
  26.6406         84
  26.6591         94
  26.6777         75
  26.6963        101
  26.7149         89
  26.7335         87
  26.7520         87
  26.7706         81
  26.7892         94
  26.8078         89
  26.8263         75
  26.8449         96
  26.8635         76
  26.8821        100
  26.9006        107
  26.9192         87
  26.9378         96
  26.9564        110
  26.9749         97
  26.9935        108
  27.0121         85
  27.0307        109
  27.0492         88
  27.0678         84
  27.0864         93
  27.1050        105
  27.1235        105
  27.1421        103
  27.1607        111
  27.1793        124
  27.1978        104
  27.2164        116
  27.2350         98
  27.2536         84
  27.2721         96
  27.2907         95
  27.3093         84
  27.3279         84
  27.3464         99
  27.3650        103
  27.3836         77
  27.4022         70
  27.4207         99
  27.4393         96
  27.4579         79
  27.4765         87
  27.4951         92
  27.5136         87
  27.5322         97
  27.5508        102
  27.5694        110
  27.5879         76
  27.6065         93
  27.6251         80
  27.6437         95
  27.6622         88
  27.6808         82
  27.6994         80
  27.7180         84
  27.7365         85
  27.7551         77
  27.7737         81
  27.7923         75
  27.8108         99
  27.8294         83
  27.8480         72
  27.8666         88
  27.8851        101
  27.9037         82
  27.9223         90
  27.9409        102
  27.9594         92
  27.9780         71
  27.9966         84
  28.0152         86
  28.0337         93
  28.0523         94
  28.0709         89
  28.0895         87
  28.1080         99
  28.1266         93
  28.1452        105
  28.1638         86
  28.1823         80
  28.2009         89
  28.2195         77
  28.2381        100
  28.2567         83
  28.2752         80
  28.2938         86
  28.3124         77
  28.3310         78
  28.3495         99
  28.3681         85
  28.3867         85
  28.4053         69
  28.4238         86
  28.4424         77
  28.4610         68
  28.4796         73
  28.4981         75
  28.5167         89
  28.5353         75
  28.5539         77
  28.5724         90
  28.5910         89
  28.6096         68
  28.6282         72
  28.6467         79
  28.6653         81
  28.6839         84
  28.7025         67
  28.7210         70
  28.7396         91
  28.7582         87
  28.7768         89
  28.7953         87
  28.8139         76
  28.8325         92
  28.8511         69
  28.8696         74
  28.8882         79
  28.9068         84
  28.9254         77
  28.9439         65
  28.9625         85
  28.9811         81
  28.9997         94
  29.0183         69
  29.0368         84
  29.0554         77
  29.0740         85
  29.0926         69
  29.1111         73
  29.1297         82
  29.1483         96
  29.1669         84
  29.1854         70
  29.2040         88
  29.2226         73
  29.2412         68
  29.2597         79
  29.2783         77
  29.2969         74
  29.3155         91
  29.3340         64
  29.3526         81
  29.3712         81
  29.3898         71
  29.4083         78
  29.4269         66
  29.4455         79
  29.4641         70
  29.4826         75
  29.5012         76
  29.5198         58
  29.5384         80
  29.5569         76
  29.5755         90
  29.5941         80
  29.6127         80
  29.6312         75
  29.6498         75
  29.6684         71
  29.6870         58
  29.7055         77
  29.7241         87
  29.7427         74
  29.7613         79
  29.7799         79
  29.7984         74
  29.8170         68
  29.8356         77
  29.8542         71
  29.8727         89
  29.8913         72
  29.9099         65
  29.9285         96
  29.9470         70
  29.9656         66
  29.9842         64
  30.0028         83
  30.0213         77
  30.0399         76
  30.0585         72
  30.0771         76
  30.0956         84
  30.1142         88
  30.1328         90
  30.1514         87
  30.1699         87
  30.1885         77
  30.2071         66
  30.2257         72
  30.2442         81
  30.2628         88
  30.2814         82
  30.3000         88
  30.3185        104
  30.3371        133
  30.3557        139
  30.3743        177
  30.3928        125
  30.4114        110
  30.4300        128
  30.4486        139
  30.4671        103
  30.4857         89
  30.5043         85
  30.5229         88
  30.5415         68
  30.5600         84
  30.5786         71
  30.5972         74
  30.6158         73
  30.6343         87
  30.6529         65
  30.6715         70
  30.6901         73
  30.7086         71
  30.7272         80
  30.7458         70
  30.7644         78
  30.7829         74
  30.8015         65
  30.8201         72
  30.8387         74
  30.8572         59
  30.8758         68
  30.8944         73
  30.9130         75
  30.9315         56
  30.9501         69
  30.9687         78
  30.9873         92
  31.0058         64
  31.0244         76
  31.0430         89
  31.0616         72
  31.0801         67
  31.0987         77
  31.1173         66
  31.1359         65
  31.1544         60
  31.1730         60
  31.1916         69
  31.2102         80
  31.2287         66
  31.2473         92
  31.2659         60
  31.2845         66
  31.3030         71
  31.3216         57
  31.3402         75
  31.3588         79
  31.3774         55
  31.3959         52
  31.4145         62
  31.4331         62
  31.4517         69
  31.4702         73
  31.4888         64
  31.5074         65
  31.5260         67
  31.5445         66
  31.5631         66
  31.5817         61
  31.6003         57
  31.6188         73
  31.6374         46
  31.6560         64
  31.6746         71
  31.6931         80
  31.7117         62
  31.7303         67
  31.7489         58
  31.7674         74
  31.7860         62
  31.8046         59
  31.8232         67
  31.8417         60
  31.8603         56
  31.8789         70
  31.8975         64
  31.9160         58
  31.9346         76
  31.9532         74
  31.9718         69
  31.9903         55
  32.0089         78
  32.0275         59
  32.0461         77
  32.0646         63
  32.0832         83
  32.1018         57
  32.1204         69
  32.1390         78
  32.1575         64
  32.1761         80
  32.1947         53
  32.2133         61
  32.2318         70
  32.2504         65
  32.2690         84
  32.2876         70
  32.3061         83
  32.3247         75
  32.3433         57
  32.3619         70
  32.3804         64
  32.3990         62
  32.4176         71
  32.4362         65
  32.4547         77
  32.4733         56
  32.4919         61
  32.5105         56
  32.5290         84
  32.5476         59
  32.5662         75
  32.5848         65
  32.6033         74
  32.6219         94
  32.6405         63
  32.6591         52
  32.6776         59
  32.6962         65
  32.7148         58
  32.7334         67
  32.7519         58
  32.7705         56
  32.7891         56
  32.8077         62
  32.8262         61
  32.8448         67
  32.8634         63
  32.8820         46
  32.9006         61
  32.9191         67
  32.9377         57
  32.9563         62
  32.9749         50
  32.9934         70
  33.0120         67
  33.0306         49
  33.0492         63
  33.0677         61
  33.0863         47
  33.1049         60
  33.1235         59
  33.1420         74
  33.1606         62
  33.1792         62
  33.1978         53
  33.2163         60
  33.2349         70
  33.2535         58
  33.2721         71
  33.2906         47
  33.3092         67
  33.3278         58
  33.3464         58
  33.3649         63
  33.3835         55
  33.4021         60
  33.4207         59
  33.4392         53
  33.4578         65
  33.4764         54
  33.4950         68
  33.5135         52
  33.5321         52
  33.5507         58
  33.5693         51
  33.5878         58
  33.6064         49
  33.6250         55
  33.6436         66
  33.6622         66
  33.6807         66
  33.6993         54
  33.7179         64
  33.7365         61
  33.7550         58
  33.7736         70
  33.7922         56
  33.8108         70
  33.8293         67
  33.8479         52
  33.8665         61
  33.8851         65
  33.9036         52
  33.9222         49
  33.9408         62
  33.9594         48
  33.9779         68
  33.9965         61
  34.0151         53
  34.0337         41
  34.0522         63
  34.0708         50
  34.0894         59
  34.1080         45
  34.1265         41
  34.1451         51
  34.1637         64
  34.1823         61
  34.2008         45
  34.2194         56
  34.2380         56
  34.2566         54
  34.2751         46
  34.2937         43
  34.3123         76
  34.3309         60
  34.3494         58
  34.3680         53
  34.3866         52
  34.4052         61
  34.4238         46
  34.4423         64
  34.4609         40
  34.4795         56
  34.4981         64
  34.5166         49
  34.5352         60
  34.5538         49
  34.5724         61
  34.5909         56
  34.6095         65
  34.6281         72
  34.6467         57
  34.6652         78
  34.6838         75
  34.7024         82
  34.7210         77
  34.7395         70
  34.7581         75
  34.7767         68
  34.7953         79
  34.8138         71
  34.8324         64
  34.8510         68
  34.8696         57
  34.8881         65
  34.9067         55
  34.9253         74
  34.9439         66
  34.9624         39
  34.9810         68
  34.9996         46
  35.0182         59
  35.0367         54
  35.0553         58
  35.0739         59
  35.0925         61
  35.1110         57
  35.1296         60
  35.1482         52
  35.1668         62
  35.1854         50
  35.2039         48
  35.2225         48
  35.2411         53
  35.2597         67
  35.2782         47
  35.2968         63
  35.3154         54
  35.3340         60
  35.3525         59
  35.3711         49
  35.3897         51
  35.4083         49
  35.4268         50
  35.4454         44
  35.4640         52
  35.4826         59
  35.5011         44
  35.5197         49
  35.5383         47
  35.5569         43
  35.5754         51
  35.5940         49
  35.6126         50
  35.6312         54
  35.6497         53
  35.6683         57
  35.6869         53
  35.7055         48
  35.7240         45
  35.7426         57
  35.7612         41
  35.7798         66
  35.7983         39
  35.8169         55
  35.8355         44
  35.8541         63
  35.8726         59
  35.8912         63
  35.9098         47
  35.9284         45
  35.9469         40
  35.9655         43
  35.9841         43
  36.0027         36
  36.0213         41
  36.0398         39
  36.0584         43
  36.0770         45
  36.0956         48
  36.1141         54
  36.1327         44
  36.1513         41
  36.1699         42
  36.1884         46
  36.2070         44
  36.2256         41
  36.2442         51
  36.2627         43
  36.2813         46
  36.2999         56
  36.3185         39
  36.3370         47
  36.3556         43
  36.3742         44
  36.3928         37
  36.4113         46
  36.4299         47
  36.4485         42
  36.4671         38
  36.4856         49
  36.5042         31
  36.5228         36
  36.5414         52
  36.5599         50
  36.5785         47
  36.5971         55
  36.6157         51
  36.6342         47
  36.6528         48
  36.6714         42
  36.6900         45
  36.7085         45
  36.7271         40
  36.7457         45
  36.7643         51
  36.7829         49
  36.8014         47
  36.8200         53
  36.8386         59
  36.8572         51
  36.8757         46
  36.8943         43
  36.9129         39
  36.9315         42
  36.9500         38
  36.9686         44
  36.9872         53
  37.0058         52
  37.0243         41
  37.0429         54
  37.0615         44
  37.0801         42
  37.0986         49
  37.1172         43
  37.1358         56
  37.1544         46
  37.1729         53
  37.1915         51
  37.2101         40
  37.2287         36
  37.2472         52
  37.2658         66
  37.2844         59
  37.3030         60
  37.3215         48
  37.3401         56
  37.3587         48
  37.3773         50
  37.3958         65
  37.4144         62
  37.4330         82
  37.4516         72
  37.4701         60
  37.4887         66
  37.5073         59
  37.5259         58
  37.5445         60
  37.5630         52
  37.5816         47
  37.6002         42
  37.6188         58
  37.6373         51
  37.6559         40
  37.6745         57
  37.6931         48
  37.7116         46
  37.7302         46
  37.7488         52
  37.7674         40
  37.7859         42
  37.8045         36
  37.8231         54
  37.8417         43
  37.8602         43
  37.8788         39
  37.8974         38
  37.9160         44
  37.9345         65
  37.9531         42
  37.9717         47
  37.9903         35
  38.0088         42
  38.0274         39
  38.0460         50
  38.0646         46
  38.0831         34
  38.1017         47
  38.1203         47
  38.1389         48
  38.1574         43
  38.1760         38
  38.1946         56
  38.2132         42
  38.2317         35
  38.2503         46
  38.2689         36
  38.2875         39
  38.3061         40
  38.3246         47
  38.3432         43
  38.3618         47
  38.3804         43
  38.3989         39
  38.4175         39
  38.4361         40
  38.4547         46
  38.4732         44
  38.4918         35
  38.5104         50
  38.5290         31
  38.5475         38
  38.5661         39
  38.5847         44
  38.6033         45
  38.6218         35
  38.6404         42
  38.6590         45
  38.6776         44
  38.6961         37
  38.7147         39
  38.7333         31
  38.7519         42
  38.7704         45
  38.7890         36
  38.8076         47
  38.8262         41
  38.8447         47
  38.8633         51
  38.8819         38
  38.9005         38
  38.9190         33
  38.9376         34
  38.9562         38
  38.9748         48
  38.9933         48
  39.0119         48
  39.0305         40
  39.0491         48
  39.0677         56
  39.0862         43
  39.1048         31
  39.1234         31
  39.1420         45
  39.1605         49
  39.1791         32
  39.1977         37
  39.2163         45
  39.2348         45
  39.2534         38
  39.2720         40
  39.2906         50
  39.3091         40
  39.3277         39
  39.3463         31
  39.3649         41
  39.3834         32
  39.4020         35
  39.4206         38
  39.4392         37
  39.4577         38
  39.4763         40
  39.4949         47
  39.5135         39
  39.5320         29
  39.5506         31
  39.5692         50
  39.5878         35
  39.6063         40
  39.6249         35
  39.6435         46
  39.6621         25
  39.6806         34
  39.6992         38
  39.7178         32
  39.7364         37
  39.7549         24
  39.7735         31
  39.7921         37
  39.8107         39
  39.8293         30
  39.8478         44
  39.8664         38
  39.8850         47
  39.9036         37
  39.9221         45
  39.9407         37
  39.9593         34
  39.9779         44
  39.9964         45
  40.0150         44
  40.0336         27
  40.0522         36
  40.0707         41
  40.0893         33
  40.1079         47
  40.1265         43
  40.1450         37
  40.1636         40
  40.1822         51
  40.2008         48
  40.2193         49
  40.2379         46
  40.2565         41
  40.2751         39
  40.2936         43
  40.3122         36
  40.3308         33
  40.3494         29
  40.3679         41
  40.3865         29
  40.4051         41
  40.4237         31
  40.4422         36
  40.4608         38
  40.4794         34
  40.4980         37
  40.5165         44
  40.5351         31
  40.5537         38
  40.5723         33
  40.5908         35
  40.6094         48
  40.6280         48
  40.6466         46
  40.6652         52
  40.6837         40
  40.7023         37
  40.7209         40
  40.7395         43
  40.7580         40
  40.7766         38
  40.7952         44
  40.8138         31
  40.8323         24
  40.8509         40
  40.8695         51
  40.8881         32
  40.9066         39
  40.9252         43
  40.9438         36
  40.9624         45
  40.9809         54
  40.9995         40
  41.0181         42
  41.0367         31
  41.0552         44
  41.0738         41
  41.0924         27
  41.1110         40
  41.1295         29
  41.1481         39
  41.1667         30
  41.1853         35
  41.2038         23
  41.2224         38
  41.2410         31
  41.2596         32
  41.2781         31
  41.2967         36
  41.3153         35
  41.3339         31
  41.3524         38
  41.3710         39
  41.3896         37
  41.4082         48
  41.4268         39
  41.4453         39
  41.4639         40
  41.4825         36
  41.5011         36
  41.5196         33
  41.5382         43
  41.5568         37
  41.5754         37
  41.5939         30
  41.6125         39
  41.6311         43
  41.6497         40
  41.6682         35
  41.6868         40
  41.7054         42
  41.7240         34
  41.7425         41
  41.7611         40
  41.7797         33
  41.7983         48
  41.8168         40
  41.8354         26
  41.8540         42
  41.8726         43
  41.8911         37
  41.9097         33
  41.9283         25
  41.9469         39
  41.9654         25
  41.9840         43
  42.0026         25
  42.0212         40
  42.0397         35
  42.0583         31
  42.0769         38
  42.0955         35
  42.1140         42
  42.1326         34
  42.1512         34
  42.1698         30
  42.1884         44
  42.2069         37
  42.2255         26
  42.2441         41
  42.2627         50
  42.2812         47
  42.2998         29
  42.3184         33
  42.3370         36
  42.3555         30
  42.3741         34
  42.3927         50
  42.4113         32
  42.4298         41
  42.4484         30
  42.4670         29
  42.4856         43
  42.5041         35
  42.5227         36
  42.5413         41
  42.5599         47
  42.5784         33
  42.5970         29
  42.6156         35
  42.6342         50
  42.6527         41
  42.6713         41
  42.6899         33
  42.7085         26
  42.7270         25
  42.7456         31
  42.7642         30
  42.7828         56
  42.8013         32
  42.8199         42
  42.8385         33
  42.8571         31
  42.8756         32
  42.8942         29
  42.9128         29
  42.9314         29
  42.9500         27
  42.9685         37
  42.9871         39
  43.0057         38
  43.0243         37
  43.0428         41
  43.0614         37
  43.0800         31
  43.0986         41
  43.1171         33
  43.1357         33
  43.1543         38
  43.1729         41
  43.1914         35
  43.2100         45
  43.2286         38
  43.2472         41
  43.2657         38
  43.2843         46
  43.3029         41
  43.3215         39
  43.3400         39
  43.3586         39
  43.3772         36
  43.3958         37
  43.4143         38
  43.4329         34
  43.4515         52
  43.4701         55
  43.4886         60
  43.5072         42
  43.5258         49
  43.5444         36
  43.5629         66
  43.5815         45
  43.6001         36
  43.6187         44
  43.6372         48
  43.6558         35
  43.6744         44
  43.6930         50
  43.7116         28
  43.7301         39
  43.7487         35
  43.7673         38
  43.7859         45
  43.8044         31
  43.8230         38
  43.8416         52
  43.8602         24
  43.8787         30
  43.8973         33
  43.9159         35
  43.9345         36
  43.9530         34
  43.9716         34
  43.9902         34
  44.0088         34
  44.0273         39
  44.0459         35
  44.0645         38
  44.0831         35
  44.1016         33
  44.1202         44
  44.1388         40
  44.1574         41
  44.1759         36
  44.1945         35
  44.2131         28
  44.2317         38
  44.2502         42
  44.2688         34
  44.2874         29
  44.3060         35
  44.3245         38
  44.3431         31
  44.3617         27
  44.3803         42
  44.3988         31
  44.4174         37
  44.4360         47
  44.4546         33
  44.4732         43
  44.4917         46
  44.5103         37
  44.5289         28
  44.5475         33
  44.5660         30
  44.5846         30
  44.6032         44
  44.6218         29
  44.6403         31
  44.6589         30
  44.6775         35
  44.6961         42
  44.7146         35
  44.7332         45
  44.7518         44
  44.7704         47
  44.7889         31
  44.8075         45
  44.8261         41
  44.8447         28
  44.8632         41
  44.8818         27
  44.9004         26
  44.9190         45
  44.9375         43
  44.9561         26
  44.9747         31
  44.9933         41
  45.0118         31
  45.0304         30
  45.0490         41
  45.0676         34
  45.0861         41
  45.1047         39
  45.1233         35
  45.1419         28
  45.1604         35
  45.1790         38
  45.1976         42
  45.2162         34
  45.2347         36
  45.2533         35
  45.2719         37
  45.2905         31
  45.3091         32
  45.3276         44
  45.3462         45
  45.3648         42
  45.3834         36
  45.4019         23
  45.4205         28
  45.4391         27
  45.4577         29
  45.4762         39
  45.4948         38
  45.5134         29
  45.5320         33
  45.5505         35
  45.5691         29
  45.5877         25
  45.6063         44
  45.6248         47
  45.6434         22
  45.6620         32
  45.6806         45
  45.6991         42
  45.7177         33
  45.7363         37
  45.7549         27
  45.7734         30
  45.7920         36
  45.8106         30
  45.8292         22
  45.8477         29
  45.8663         42
  45.8849         33
  45.9035         38
  45.9220         33
  45.9406         38
  45.9592         33
  45.9778         26
  45.9963         32
  46.0149         25
  46.0335         16
  46.0521         25
  46.0707         36
  46.0892         33
  46.1078         39
  46.1264         32
  46.1450         41
  46.1635         34
  46.1821         32
  46.2007         32
  46.2193         36
  46.2378         28
  46.2564         33
  46.2750         28
  46.2936         33
  46.3121         40
  46.3307         27
  46.3493         35
  46.3679         34
  46.3864         31
  46.4050         33
  46.4236         41
  46.4422         31
  46.4607         38
  46.4793         26
  46.4979         25
  46.5165         33
  46.5350         38
  46.5536         35
  46.5722         30
  46.5908         39
  46.6093         33
  46.6279         40
  46.6465         24
  46.6651         27
  46.6836         33
  46.7022         36
  46.7208         24
  46.7394         37
  46.7579         38
  46.7765         45
  46.7951         25
  46.8137         35
  46.8323         49
  46.8508         30
  46.8694         43
  46.8880         35
  46.9066         30
  46.9251         24
  46.9437         35
  46.9623         44
  46.9809         27
  46.9994         33
  47.0180         33
  47.0366         22
  47.0552         21
  47.0737         38
  47.0923         35
  47.1109         30
  47.1295         30
  47.1480         33
  47.1666         28
  47.1852         42
  47.2038         37
  47.2223         36
  47.2409         36
  47.2595         35
  47.2781         33
  47.2966         24
  47.3152         37
  47.3338         34
  47.3524         38
  47.3709         26
  47.3895         38
  47.4081         35
  47.4267         35
  47.4452         41
  47.4638         32
  47.4824         33
  47.5010         29
  47.5195         37
  47.5381         33
  47.5567         29
  47.5753         36
  47.5939         33
  47.6124         20
  47.6310         38
  47.6496         33
  47.6682         24
  47.6867         37
  47.7053         34
  47.7239         34
  47.7425         28
  47.7610         25
  47.7796         24
  47.7982         25
  47.8168         29
  47.8353         36
  47.8539         32
  47.8725         37
  47.8911         39
  47.9096         36
  47.9282         30
  47.9468         25
  47.9654         27
  47.9839         29
  48.0025         40
  48.0211         33
  48.0397         23
  48.0582         29
  48.0768         26
  48.0954         32
  48.1140         38
  48.1325         40
  48.1511         34
  48.1697         31
  48.1883         31
  48.2068         28
  48.2254         24
  48.2440         26
  48.2626         33
  48.2811         49
  48.2997         25
  48.3183         28
  48.3369         25
  48.3555         24
  48.3740         36
  48.3926         34
  48.4112         34
  48.4298         30
  48.4483         34
  48.4669         40
  48.4855         29
  48.5041         28
  48.5226         34
  48.5412         25
  48.5598         27
  48.5784         34
  48.5969         36
  48.6155         34
  48.6341         35
  48.6527         30
  48.6712         32
  48.6898         29
  48.7084         37
  48.7270         44
  48.7455         30
  48.7641         32
  48.7827         46
  48.8013         29
  48.8198         30
  48.8384         48
  48.8570         30
  48.8756         38
  48.8941         36
  48.9127         56
  48.9313         61
  48.9499         49
  48.9684         56
  48.9870         39
  49.0056         58
  49.0242         43
  49.0427         40
  49.0613         38
  49.0799         47
  49.0985         44
  49.1171         29
  49.1356         31
  49.1542         27
  49.1728         29
  49.1914         31
  49.2099         30
  49.2285         37
  49.2471         28
  49.2657         32
  49.2842         39
  49.3028         27
  49.3214         30
  49.3400         31
  49.3585         20
  49.3771         24
  49.3957         34
  49.4143         33
  49.4328         42
  49.4514         26
  49.4700         32
  49.4886         28
  49.5071         39
  49.5257         38
  49.5443         34
  49.5629         24
  49.5814         25
  49.6000         35
  49.6186         36
  49.6372         29
  49.6557         34
  49.6743         35
  49.6929         30
  49.7115         28
  49.7300         29
  49.7486         39
  49.7672         39
  49.7858         34
  49.8043         37
  49.8229         37
  49.8415         35
  49.8601         25
  49.8786         32
  49.8972         30
  49.9158         21
  49.9344         35
  49.9530         14
  49.9715         39
  49.9901         23
  50.0087         28
  50.0273         29
  50.0458         26
  50.0644         38
  50.0830         29
  50.1016         28
  50.1201         31
  50.1387         31
  50.1573         32
  50.1759         27
  50.1944         35
  50.2130         45
  50.2316         33
  50.2502         24
  50.2687         47
  50.2873         30
  50.3059         31
  50.3245         35
  50.3430         23
  50.3616         35
  50.3802         28
  50.3988         25
  50.4173         25
  50.4359         28
  50.4545         26
  50.4731         25
  50.4916         33
  50.5102         25
  50.5288         24
  50.5474         30
  50.5659         25
  50.5845         32
  50.6031         34
  50.6217         35
  50.6402         22
  50.6588         37
  50.6774         23
  50.6960         27
  50.7146         29
  50.7331         32
  50.7517         22
  50.7703         20
  50.7889         24
  50.8074         32
  50.8260         21
  50.8446         35
  50.8632         23
  50.8817         24
  50.9003         24
  50.9189         34
  50.9375         34
  50.9560         34
  50.9746         24
  50.9932         34
  51.0118         33
  51.0303         28
  51.0489         31
  51.0675         20
  51.0861         31
  51.1046         23
  51.1232         19
  51.1418         31
  51.1604         39
  51.1789         37
  51.1975         29
  51.2161         28
  51.2347         26
  51.2532         29
  51.2718         27
  51.2904         34
  51.3090         34
  51.3275         27
  51.3461         37
  51.3647         41
  51.3833         35
  51.4018         40
  51.4204         32
  51.4390         28
  51.4576         46
  51.4762         33
  51.4947         37
  51.5133         27
  51.5319         38
  51.5505         34
  51.5690         31
  51.5876         43
  51.6062         36
  51.6248         37
  51.6433         28
  51.6619         19
  51.6805         35
  51.6991         28
  51.7176         31
  51.7362         28
  51.7548         31
  51.7734         35
  51.7919         41
  51.8105         36
  51.8291         49
  51.8477         28
  51.8662         32
  51.8848         41
  51.9034         32
  51.9220         41
  51.9405         36
  51.9591         27
  51.9777         32
  51.9963         27
  52.0148         29
  52.0334         28
  52.0520         34
  52.0706         26
  52.0891         17
  52.1077         29
  52.1263         26
  52.1449         38
  52.1634         27
  52.1820         32
  52.2006         28
  52.2192         29
  52.2378         28
  52.2563         27
  52.2749         38
  52.2935         24
  52.3121         35
  52.3306         34
  52.3492         26
  52.3678         31
  52.3864         29
  52.4049         26
  52.4235         16
  52.4421         20
  52.4607         22
  52.4792         25
  52.4978         34
  52.5164         25
  52.5350         33
  52.5535         26
  52.5721         39
  52.5907         24
  52.6093         23
  52.6278         39
  52.6464         24
  52.6650         22
  52.6836         24
  52.7021         29
  52.7207         25
  52.7393         33
  52.7579         26
  52.7764         19
  52.7950         35
  52.8136         23
  52.8322         40
  52.8507         33
  52.8693         31
  52.8879         36
  52.9065         22
  52.9250         34
  52.9436         27
  52.9622         28
  52.9808         31
  52.9994         22
  53.0179         27
  53.0365         39
  53.0551         26
  53.0737         28
  53.0922         33
  53.1108         18
  53.1294         25
  53.1480         29
  53.1665         24
  53.1851         31
  53.2037         30
  53.2223         27
  53.2408         29
  53.2594         32
  53.2780         28
  53.2966         39
  53.3151         24
  53.3337         24
  53.3523         40
  53.3709         24
  53.3894         33
  53.4080         28
  53.4266         18
  53.4452         24
  53.4637         29
  53.4823         23
  53.5009         31
  53.5195         30
  53.5380         23
  53.5566         27
  53.5752         31
  53.5938         27
  53.6123         25
  53.6309         24
  53.6495         33
  53.6681         27
  53.6866         33
  53.7052         24
  53.7238         35
  53.7424         32
  53.7610         21
  53.7795         36
  53.7981         24
  53.8167         32
  53.8353         43
  53.8538         27
  53.8724         26
  53.8910         26
  53.9096         19
  53.9281         27
  53.9467         31
  53.9653         39
  53.9839         34
  54.0024         34
  54.0210         39
  54.0396         40
  54.0582         32
  54.0767         36
  54.0953         29
  54.1139         34
  54.1325         27
  54.1510         32
  54.1696         30
  54.1882         26
  54.2068         27
  54.2253         32
  54.2439         31
  54.2625         34
  54.2811         26
  54.2996         17
  54.3182         33
  54.3368         33
  54.3554         36
  54.3739         32
  54.3925         35
  54.4111         34
  54.4297         30
  54.4482         28
  54.4668         28
  54.4854         24
  54.5040         27
  54.5225         28
  54.5411         28
  54.5597         29
  54.5783         23
  54.5969         19
  54.6154         27
  54.6340         32
  54.6526         22
  54.6712         22
  54.6897         27
  54.7083         23
  54.7269         31
  54.7455         23
  54.7640         22
  54.7826         24
  54.8012         25
  54.8198         38
  54.8383         38
  54.8569         28
  54.8755         22
  54.8941         26
  54.9126         34
  54.9312         35
  54.9498         30
  54.9684         23
  54.9869         27
  55.0055         27
  55.0241         30
  55.0427         27
  55.0612         25
  55.0798         28
  55.0984         36
  55.1170         29
  55.1355         26
  55.1541         24
  55.1727         23
  55.1913         30
  55.2098         25
  55.2284         31
  55.2470         29
  55.2656         29
  55.2841         30
  55.3027         26
  55.3213         39
  55.3399         33
  55.3585         29
  55.3770         25
  55.3956         30
  55.4142         24
  55.4328         26
  55.4513         32
  55.4699         29
  55.4885         30
  55.5071         21
  55.5256         22
  55.5442         24
  55.5628         20
  55.5814         37
  55.5999         22
  55.6185         24
  55.6371         40
  55.6557         37
  55.6742         26
  55.6928         26
  55.7114         30
  55.7300         28
  55.7485         22
  55.7671         19
  55.7857         33
  55.8043         25
  55.8228         38
  55.8414         32
  55.8600         28
  55.8786         29
  55.8971         23
  55.9157         29
  55.9343         25
  55.9529         22
  55.9714         21
  55.9900         36
  56.0086         22
  56.0272         27
  56.0457         31
  56.0643         31
  56.0829         21
  56.1015         26
  56.1201         26
  56.1386         26
  56.1572         28
  56.1758         34
  56.1944         20
  56.2129         30
  56.2315         27
  56.2501         26
  56.2687         41
  56.2872         32
  56.3058         27
  56.3244         33
  56.3430         34
  56.3615         30
  56.3801         27
  56.3987         21
  56.4173         27
  56.4358         42
  56.4544         27
  56.4730         28
  56.4916         28
  56.5101         26
  56.5287         25
  56.5473         35
  56.5659         27
  56.5844         28
  56.6030         32
  56.6216         36
  56.6402         22
  56.6587         30
  56.6773         29
  56.6959         14
  56.7145         25
  56.7330         30
  56.7516         29
  56.7702         39
  56.7888         33
  56.8073         21
  56.8259         30
  56.8445         29
  56.8631         30
  56.8817         34
  56.9002         35
  56.9188         26
  56.9374         35
  56.9560         32
  56.9745         32
  56.9931         29
  57.0117         22
  57.0303         32
  57.0488         30
  57.0674         26
  57.0860         24
  57.1046         29
  57.1231         31
  57.1417         23
  57.1603         32
  57.1789         28
  57.1974         19
  57.2160         27
  57.2346         27
  57.2532         23
  57.2717         27
  57.2903         38
  57.3089         23
  57.3275         27
  57.3460         24
  57.3646         21
  57.3832         30
  57.4018         25
  57.4203         29
  57.4389         28
  57.4575         26
  57.4761         33
  57.4946         24
  57.5132         25
  57.5318         24
  57.5504         28
  57.5689         32
  57.5875         32
  57.6061         27
  57.6247         28
  57.6433         26
  57.6618         24
  57.6804         24
  57.6990         22
  57.7176         26
  57.7361         25
  57.7547         21
  57.7733         25
  57.7919         29
  57.8104         35
  57.8290         27
  57.8476         26
  57.8662         36
  57.8847         30
  57.9033         26
  57.9219         30
  57.9405         32
  57.9590         27
  57.9776         27
  57.9962         25
  58.0148         30
  58.0333         24
  58.0519         28
  58.0705         23
  58.0891         32
  58.1076         29
  58.1262         38
  58.1448         29
  58.1634         37
  58.1819         29
  58.2005         29
  58.2191         36
  58.2377         22
  58.2562         25
  58.2748         29
  58.2934         26
  58.3120         27
  58.3305         23
  58.3491         30
  58.3677         29
  58.3863         25
  58.4049         27
  58.4234         22
  58.4420         27
  58.4606         26
  58.4792         31
  58.4977         33
  58.5163         19
  58.5349         24
  58.5535         24
  58.5720         26
  58.5906         31
  58.6092         33
  58.6278         19
  58.6463         38
  58.6649         35
  58.6835         33
  58.7021         26
  58.7206         26
  58.7392         29
  58.7578         28
  58.7764         27
  58.7949         23
  58.8135         31
  58.8321         33
  58.8507         30
  58.8692         26
  58.8878         37
  58.9064         29
  58.9250         29
  58.9435         18
  58.9621         24
  58.9807         27
  58.9993         28
  59.0178         21
  59.0364         19
  59.0550         31
  59.0736         25
  59.0921         22
  59.1107         24
  59.1293         31
  59.1479         37
  59.1664         22
  59.1850         26
  59.2036         26
  59.2222         23
  59.2408         17
  59.2593         25
  59.2779         24
  59.2965         32
  59.3151         30
  59.3336         29
  59.3522         22
  59.3708         28
  59.3894         24
  59.4079         29
  59.4265         27
  59.4451         39
  59.4637         23
  59.4822         34
  59.5008         23
  59.5194         28
  59.5380         36
  59.5565         29
  59.5751         21
  59.5937         26
  59.6123         26
  59.6308         32
  59.6494         26
  59.6680         25
  59.6866         22
  59.7051         32
  59.7237         16
  59.7423         28
  59.7609         24
  59.7794         18
  59.7980         24
  59.8166         26
  59.8352         16
  59.8537         23
  59.8723         19
  59.8909         30
  59.9095         27
  59.9280         23
  59.9466         25
  59.9652         22
  59.9838         26
  60.0024         26
