; (content of file Y:\Sam\Apurva-07-20-2022\puck4\ML_20220718_17_SJD_0_LaB6-2min.raw)
_FILEVERSION = 3
_SAMPLE = ML_20220718_17_SJD_0_LaB6-2min
_+SAMPLE = 
_SITE = USA
_USER = Administrator
_GONIOMETER_CODE = 20
; Goniometer : D8 theta/2theta, stage : Unknown
_ATTACHMENTS_CODE = 0
_GONIOMETER_RADIUS = 200.5
_FIXED_DIVSLIT = 0.6
_FIXED_SAMPLESLIT = 0
_SOLLER_SLITS = 2
_FIXED_DETSLIT = 9.55
_MONOCHROMATOR = 0
; Incident beam monochromator : None
_SOLLER_SLITS_2 = N
_THIN_FILM = N
_BETA_FILTER = Y
_FIXED_ANTISLIT = 5.89
_ANALYZER_CODE = 0
; Received beam analyzer : None
_DATEMEASURED = "26-Jul-2022 09:44:42"
_WL_UNIT = A
_WL1 = 1.5406
_WL2 = 1.54439
_WL3 = 1.39222
_WLRATIO = 0.5
_ANODE = Cu
_V4_INF_CREATOR = XRDWizard
_V4_INF_CREATOR_VERSION = V2.9.0.22
_V4_INF_WIZARD_VERSION = V2.9.0.22
_V4_INF_WIZARD_ADDINS = V2.9.0.22
_V4_INF_WIZARD_DOCTYPE = XRD
_V4_INF_OSUSER = McQueenLab
_V4_INF_USER = Administrator
_V4_INF_SITE = USA
_V4_INF_SAMPLEID = ML_20220718_17_SJD_0_LaB6-2min

; Data for range 1
_DRIVE = COUPLED
_STEPTIME = 5.64
_STEPSIZE = 0.0185756
_STEPMODE = C
_START = 5
_THETA = 2.5
_2THETA = 5
_KHI = 0
_PHI = 0
_X = 0
_Y = 0
_Z = 0
_DETECTOR = 5
; Detector type : Unknown
_DETECTORSLIT = unkn
_AUX1 = 0
_AUX2 = 0
_AUX3 = 0
_TIMESTARTED = 15
_TEMP_RATE = -1
_TEMP_DELAY = -1
_KV = 40
_MA = 40
_RANGE_WL = 1.5406
_3DPLANE = 0
_V4_ADDITIONALDETECTOR = 257
_V4_PSD2THETA = 3.3708
_V4_PSDCHANNEL1 = 0
_V4_PSDAPERTURE = 12.68
_V4_PSDTYPE = 5
_V4_PSDFIXED = 0
_V4_COUNTERS_MASK = 4096
_V4_DRIVES_MASK = 0
_V4_ENCODERS_MASK = 0
_2THETACOUNTS = 1
; 2THETA  PSD
   5.0000        128
   5.0186        152
   5.0372        132
   5.0557        127
   5.0743        117
   5.0929        150
   5.1115        158
   5.1300        124
   5.1486        126
   5.1672        110
   5.1858        118
   5.2043        131
   5.2229        121
   5.2415        125
   5.2601        120
   5.2786        122
   5.2972         97
   5.3158        117
   5.3344        111
   5.3529        125
   5.3715        106
   5.3901        112
   5.4087        118
   5.4272        128
   5.4458        105
   5.4644        118
   5.4830         95
   5.5015        121
   5.5201        123
   5.5387        116
   5.5573         94
   5.5758        106
   5.5944        108
   5.6130        114
   5.6316        126
   5.6501        110
   5.6687        105
   5.6873        114
   5.7059        104
   5.7244        102
   5.7430        110
   5.7616         89
   5.7802        105
   5.7988         89
   5.8173        115
   5.8359         93
   5.8545        103
   5.8731         92
   5.8916        107
   5.9102         99
   5.9288         93
   5.9474         98
   5.9659        101
   5.9845        100
   6.0031        122
   6.0217         92
   6.0402        105
   6.0588         92
   6.0774        106
   6.0960         98
   6.1145        101
   6.1331         90
   6.1517        103
   6.1703        108
   6.1888        102
   6.2074         94
   6.2260         95
   6.2446        103
   6.2631         91
   6.2817         96
   6.3003        111
   6.3189         82
   6.3374         92
   6.3560        102
   6.3746         93
   6.3932         91
   6.4117         85
   6.4303         86
   6.4489        104
   6.4675        100
   6.4860         88
   6.5046         93
   6.5232         93
   6.5418         98
   6.5604         94
   6.5789         72
   6.5975         92
   6.6161         79
   6.6347         77
   6.6532         95
   6.6718         81
   6.6904         86
   6.7090         81
   6.7275         82
   6.7461         78
   6.7647         93
   6.7833         81
   6.8018         91
   6.8204         75
   6.8390         88
   6.8576         77
   6.8761         88
   6.8947        104
   6.9133         89
   6.9319         73
   6.9504         86
   6.9690         77
   6.9876         87
   7.0062         81
   7.0247        100
   7.0433         89
   7.0619         81
   7.0805         82
   7.0990         78
   7.1176         71
   7.1362         78
   7.1548         86
   7.1733         79
   7.1919         79
   7.2105         88
   7.2291         86
   7.2476         69
   7.2662         74
   7.2848         73
   7.3034         78
   7.3220         75
   7.3405         76
   7.3591         83
   7.3777         80
   7.3963         92
   7.4148         79
   7.4334         91
   7.4520         81
   7.4706         75
   7.4891         97
   7.5077         95
   7.5263         65
   7.5449         90
   7.5634         75
   7.5820         65
   7.6006         69
   7.6192         76
   7.6377         89
   7.6563         85
   7.6749         79
   7.6935         88
   7.7120         71
   7.7306        112
   7.7492        105
   7.7678         87
   7.7863         79
   7.8049         91
   7.8235         81
   7.8421         76
   7.8606         90
   7.8792         86
   7.8978         84
   7.9164         99
   7.9349         91
   7.9535        114
   7.9721         89
   7.9907        101
   8.0092        102
   8.0278         91
   8.0464         81
   8.0650         96
   8.0835         88
   8.1021         74
   8.1207         89
   8.1393         90
   8.1579        100
   8.1764         98
   8.1950        100
   8.2136         82
   8.2322        102
   8.2507         81
   8.2693        112
   8.2879         81
   8.3065        108
   8.3250        108
   8.3436        108
   8.3622         92
   8.3808        103
   8.3993        107
   8.4179        102
   8.4365        114
   8.4551        111
   8.4736         85
   8.4922         81
   8.5108         97
   8.5294        107
   8.5479         87
   8.5665        102
   8.5851         98
   8.6037         88
   8.6222        101
   8.6408        106
   8.6594        110
   8.6780         98
   8.6965        106
   8.7151        106
   8.7337        122
   8.7523        119
   8.7708        104
   8.7894        108
   8.8080        110
   8.8266        106
   8.8451         87
   8.8637         90
   8.8823        106
   8.9009        126
   8.9195        104
   8.9380         94
   8.9566        106
   8.9752         96
   8.9938        111
   9.0123        110
   9.0309        113
   9.0495        119
   9.0681        109
   9.0866         84
   9.1052        105
   9.1238        114
   9.1424         88
   9.1609        120
   9.1795        118
   9.1981         82
   9.2167         99
   9.2352        131
   9.2538        107
   9.2724        112
   9.2910        107
   9.3095        108
   9.3281        118
   9.3467        112
   9.3653         96
   9.3838        116
   9.4024        121
   9.4210        108
   9.4396        111
   9.4581        102
   9.4767        105
   9.4953        123
   9.5139        103
   9.5324        108
   9.5510        117
   9.5696        116
   9.5882        112
   9.6067        113
   9.6253        107
   9.6439         94
   9.6625        138
   9.6811        105
   9.6996        111
   9.7182        108
   9.7368        111
   9.7554        119
   9.7739        119
   9.7925        116
   9.8111        110
   9.8297        119
   9.8482        118
   9.8668        126
   9.8854        141
   9.9040        121
   9.9225        125
   9.9411        134
   9.9597        129
   9.9783        140
   9.9968        115
  10.0154        108
  10.0340        124
  10.0526         99
  10.0711         99
  10.0897        109
  10.1083        120
  10.1269        127
  10.1454        141
  10.1640        119
  10.1826        106
  10.2012        105
  10.2197        111
  10.2383        126
  10.2569        111
  10.2755        107
  10.2940        123
  10.3126        120
  10.3312        112
  10.3498        131
  10.3683        111
  10.3869        112
  10.4055        119
  10.4241        102
  10.4427        115
  10.4612        127
  10.4798        124
  10.4984        123
  10.5170        115
  10.5355        100
  10.5541        138
  10.5727        130
  10.5913        125
  10.6098        123
  10.6284        117
  10.6470        110
  10.6656        122
  10.6841        135
  10.7027        130
  10.7213        135
  10.7399        127
  10.7584        122
  10.7770        113
  10.7956        132
  10.8142        138
  10.8327        116
  10.8513        122
  10.8699        109
  10.8885        107
  10.9070        109
  10.9256        122
  10.9442        101
  10.9628        116
  10.9813        106
  10.9999        132
  11.0185        132
  11.0371        130
  11.0556        113
  11.0742        135
  11.0928        128
  11.1114        109
  11.1299        117
  11.1485        128
  11.1671        118
  11.1857        119
  11.2043        127
  11.2228        109
  11.2414        129
  11.2600        111
  11.2786        115
  11.2971        107
  11.3157        101
  11.3343        112
  11.3529        113
  11.3714        114
  11.3900        140
  11.4086        110
  11.4272        117
  11.4457        131
  11.4643        105
  11.4829        118
  11.5015        112
  11.5200        132
  11.5386        131
  11.5572        114
  11.5758        109
  11.5943        108
  11.6129        108
  11.6315        101
  11.6501        118
  11.6686         87
  11.6872        112
  11.7058         90
  11.7244        116
  11.7429        127
  11.7615        132
  11.7801        116
  11.7987        104
  11.8172        110
  11.8358        107
  11.8544        129
  11.8730        122
  11.8915        119
  11.9101        111
  11.9287        109
  11.9473         97
  11.9659        114
  11.9844        113
  12.0030        110
  12.0216        108
  12.0402        104
  12.0587        103
  12.0773        108
  12.0959        119
  12.1145        103
  12.1330        102
  12.1516        117
  12.1702        116
  12.1888        117
  12.2073        102
  12.2259         94
  12.2445        144
  12.2631        121
  12.2816        115
  12.3002        122
  12.3188        115
  12.3374        122
  12.3559        106
  12.3745        115
  12.3931         93
  12.4117        104
  12.4302        104
  12.4488        135
  12.4674        101
  12.4860        120
  12.5045        111
  12.5231        123
  12.5417         95
  12.5603         95
  12.5788         99
  12.5974         91
  12.6160        104
  12.6346        103
  12.6531        124
  12.6717         99
  12.6903         94
  12.7089         94
  12.7274        106
  12.7460        102
  12.7646        116
  12.7832         97
  12.8018        102
  12.8203         99
  12.8389        109
  12.8575         91
  12.8761         92
  12.8946        112
  12.9132         98
  12.9318        103
  12.9504         93
  12.9689        101
  12.9875        118
  13.0061         82
  13.0247         93
  13.0432         94
  13.0618         95
  13.0804        106
  13.0990         96
  13.1175        112
  13.1361         96
  13.1547         88
  13.1733        108
  13.1918         72
  13.2104        104
  13.2290         87
  13.2476         91
  13.2661        105
  13.2847         96
  13.3033        101
  13.3219         84
  13.3404        116
  13.3590        105
  13.3776        111
  13.3962        101
  13.4147         89
  13.4333        111
  13.4519         97
  13.4705         83
  13.4890         93
  13.5076         98
  13.5262         92
  13.5448         99
  13.5634         86
  13.5819         81
  13.6005        109
  13.6191         94
  13.6377        109
  13.6562         99
  13.6748        104
  13.6934        104
  13.7120         85
  13.7305        105
  13.7491        104
  13.7677         99
  13.7863         84
  13.8048         97
  13.8234         93
  13.8420         93
  13.8606         86
  13.8791        111
  13.8977        100
  13.9163         87
  13.9349         92
  13.9534         92
  13.9720        100
  13.9906         93
  14.0092         72
  14.0277         97
  14.0463         83
  14.0649         87
  14.0835         99
  14.1020         92
  14.1206         87
  14.1392         92
  14.1578         81
  14.1763         97
  14.1949         90
  14.2135         85
  14.2321         98
  14.2506         93
  14.2692         89
  14.2878         80
  14.3064         80
  14.3250         71
  14.3435         87
  14.3621         81
  14.3807         89
  14.3993         93
  14.4178         90
  14.4364         92
  14.4550        105
  14.4736         69
  14.4921         83
  14.5107         86
  14.5293         94
  14.5479         92
  14.5664         81
  14.5850         85
  14.6036         81
  14.6222        103
  14.6407         84
  14.6593         76
  14.6779         84
  14.6965         77
  14.7150         70
  14.7336         96
  14.7522         76
  14.7708         78
  14.7893         86
  14.8079         89
  14.8265         78
  14.8451         94
  14.8636         89
  14.8822         81
  14.9008         81
  14.9194         82
  14.9379         73
  14.9565         77
  14.9751         84
  14.9937         90
  15.0122         92
  15.0308         78
  15.0494         76
  15.0680         89
  15.0866         67
  15.1051         76
  15.1237         93
  15.1423         86
  15.1609         81
  15.1794         78
  15.1980         74
  15.2166         87
  15.2352         79
  15.2537         82
  15.2723         79
  15.2909         74
  15.3095         76
  15.3280         81
  15.3466         87
  15.3652        113
  15.3838         82
  15.4023         81
  15.4209         98
  15.4395         79
  15.4581         71
  15.4766         65
  15.4952         81
  15.5138         86
  15.5324         80
  15.5509        100
  15.5695         86
  15.5881         81
  15.6067         83
  15.6252         83
  15.6438         60
  15.6624         90
  15.6810         90
  15.6995         83
  15.7181         76
  15.7367         75
  15.7553         84
  15.7738         70
  15.7924         90
  15.8110         71
  15.8296         86
  15.8482         92
  15.8667         98
  15.8853         77
  15.9039         76
  15.9225        109
  15.9410         68
  15.9596         81
  15.9782         97
  15.9968         85
  16.0153         78
  16.0339         80
  16.0525         90
  16.0711         79
  16.0896         70
  16.1082         88
  16.1268         92
  16.1454         76
  16.1639         90
  16.1825         76
  16.2011         86
  16.2197        110
  16.2382         65
  16.2568         93
  16.2754         85
  16.2940         80
  16.3125         79
  16.3311         89
  16.3497         75
  16.3683         74
  16.3868         85
  16.4054         76
  16.4240         93
  16.4426         83
  16.4611         93
  16.4797         86
  16.4983         93
  16.5169         92
  16.5354         80
  16.5540         80
  16.5726         77
  16.5912         84
  16.6097         82
  16.6283         90
  16.6469         90
  16.6655         95
  16.6841         88
  16.7026         77
  16.7212         75
  16.7398         84
  16.7584         72
  16.7769         70
  16.7955         80
  16.8141         95
  16.8327         86
  16.8512         80
  16.8698         78
  16.8884         78
  16.9070         77
  16.9255         74
  16.9441         69
  16.9627         71
  16.9813         78
  16.9998         80
  17.0184         85
  17.0370         78
  17.0556         79
  17.0741         76
  17.0927         80
  17.1113         93
  17.1299         85
  17.1484         79
  17.1670         80
  17.1856         81
  17.2042         84
  17.2227         86
  17.2413         80
  17.2599         74
  17.2785         90
  17.2970         80
  17.3156         95
  17.3342         78
  17.3528         80
  17.3713         79
  17.3899         92
  17.4085         89
  17.4271         83
  17.4457         67
  17.4642         82
  17.4828         83
  17.5014         81
  17.5200         84
  17.5385         89
  17.5571         71
  17.5757         87
  17.5943         93
  17.6128         83
  17.6314         80
  17.6500         77
  17.6686         82
  17.6871         80
  17.7057         93
  17.7243         76
  17.7429         82
  17.7614         82
  17.7800         84
  17.7986         76
  17.8172         85
  17.8357         77
  17.8543         78
  17.8729         77
  17.8915         81
  17.9100         93
  17.9286         78
  17.9472         82
  17.9658         82
  17.9843         70
  18.0029         63
  18.0215         86
  18.0401         95
  18.0586         74
  18.0772         81
  18.0958         84
  18.1144        100
  18.1329         83
  18.1515         81
  18.1701         77
  18.1887         90
  18.2073         68
  18.2258         86
  18.2444         81
  18.2630         87
  18.2816         76
  18.3001         85
  18.3187         73
  18.3373         73
  18.3559         75
  18.3744         88
  18.3930        104
  18.4116         73
  18.4302        120
  18.4487         77
  18.4673         84
  18.4859         78
  18.5045         89
  18.5230         85
  18.5416         57
  18.5602         82
  18.5788         79
  18.5973         73
  18.6159         75
  18.6345         74
  18.6531         75
  18.6716         88
  18.6902         85
  18.7088         70
  18.7274         70
  18.7459         89
  18.7645         92
  18.7831         76
  18.8017         85
  18.8202         91
  18.8388         88
  18.8574         83
  18.8760         97
  18.8945         88
  18.9131         75
  18.9317         97
  18.9503         82
  18.9689         76
  18.9874         90
  19.0060         96
  19.0246         88
  19.0432         74
  19.0617         95
  19.0803         88
  19.0989         77
  19.1175         72
  19.1360         67
  19.1546         65
  19.1732         72
  19.1918         86
  19.2103         90
  19.2289         97
  19.2475         79
  19.2661         77
  19.2846         69
  19.3032         71
  19.3218         81
  19.3404         92
  19.3589         84
  19.3775         78
  19.3961         83
  19.4147         81
  19.4332         89
  19.4518         76
  19.4704         91
  19.4890         88
  19.5075         90
  19.5261         74
  19.5447         93
  19.5633         84
  19.5818         94
  19.6004         76
  19.6190         94
  19.6376         90
  19.6561         83
  19.6747         84
  19.6933         88
  19.7119         91
  19.7305         85
  19.7490         93
  19.7676         98
  19.7862         79
  19.8048         91
  19.8233         87
  19.8419         98
  19.8605         75
  19.8791         88
  19.8976         96
  19.9162         85
  19.9348        102
  19.9534         69
  19.9719         93
  19.9905         80
  20.0091         93
  20.0277         86
  20.0462         78
  20.0648         99
  20.0834        102
  20.1020         66
  20.1205         93
  20.1391         94
  20.1577         87
  20.1763         77
  20.1948         76
  20.2134         79
  20.2320         73
  20.2506         75
  20.2691         77
  20.2877         97
  20.3063         96
  20.3249         87
  20.3434         90
  20.3620        100
  20.3806         94
  20.3992         94
  20.4177        105
  20.4363        109
  20.4549         98
  20.4735        104
  20.4921         75
  20.5106         99
  20.5292         92
  20.5478         96
  20.5664         85
  20.5849        103
  20.6035         96
  20.6221         80
  20.6407        100
  20.6592         98
  20.6778         83
  20.6964        104
  20.7150         91
  20.7335         85
  20.7521         83
  20.7707        102
  20.7893         99
  20.8078         93
  20.8264        104
  20.8450         90
  20.8636        101
  20.8821         84
  20.9007        100
  20.9193         97
  20.9379         94
  20.9564         84
  20.9750         88
  20.9936         86
  21.0122         83
  21.0307         98
  21.0493         99
  21.0679        113
  21.0865        114
  21.1050         98
  21.1236        100
  21.1422         99
  21.1608        129
  21.1793        126
  21.1979        144
  21.2165        154
  21.2351        167
  21.2537        151
  21.2722        155
  21.2908        162
  21.3094        168
  21.3280        192
  21.3465        263
  21.3651        237
  21.3837        211
  21.4023        172
  21.4208        176
  21.4394        120
  21.4580        118
  21.4766        105
  21.4951        115
  21.5137        130
  21.5323         84
  21.5509         86
  21.5694         90
  21.5880         87
  21.6066        106
  21.6252         99
  21.6437         85
  21.6623         71
  21.6809        115
  21.6995         86
  21.7180         97
  21.7366        104
  21.7552        106
  21.7738         93
  21.7923         87
  21.8109        108
  21.8295        100
  21.8481         78
  21.8666         84
  21.8852        103
  21.9038         95
  21.9224        106
  21.9409         94
  21.9595        109
  21.9781        107
  21.9967        103
  22.0152        102
  22.0338        115
  22.0524         88
  22.0710         98
  22.0896         91
  22.1081        108
  22.1267         88
  22.1453         98
  22.1639         91
  22.1824         89
  22.2010        108
  22.2196         81
  22.2382         96
  22.2567         86
  22.2753         97
  22.2939        102
  22.3125         89
  22.3310         80
  22.3496         97
  22.3682        104
  22.3868        105
  22.4053         96
  22.4239         93
  22.4425        104
  22.4611         92
  22.4796         92
  22.4982         94
  22.5168         99
  22.5354        106
  22.5539         87
  22.5725        110
  22.5911         88
  22.6097         79
  22.6282         99
  22.6468        100
  22.6654         80
  22.6840        100
  22.7025         98
  22.7211         86
  22.7397        105
  22.7583         98
  22.7768         93
  22.7954        104
  22.8140        110
  22.8326         84
  22.8512        106
  22.8697        115
  22.8883         97
  22.9069         96
  22.9255        106
  22.9440         93
  22.9626         96
  22.9812        100
  22.9998        105
  23.0183         90
  23.0369         83
  23.0555        110
  23.0741         95
  23.0926         91
  23.1112        100
  23.1298         93
  23.1484         91
  23.1669        111
  23.1855        103
  23.2041        100
  23.2227        108
  23.2412         78
  23.2598         92
  23.2784        107
  23.2970         94
  23.3155        100
  23.3341         85
  23.3527        111
  23.3713         99
  23.3898        105
  23.4084        104
  23.4270         94
  23.4456         96
  23.4641         89
  23.4827        103
  23.5013         91
  23.5199         89
  23.5384        101
  23.5570        115
  23.5756         75
  23.5942        107
  23.6128         93
  23.6313        109
  23.6499        116
  23.6685         83
  23.6871        103
  23.7056        102
  23.7242         98
  23.7428         94
  23.7614        104
  23.7799         89
  23.7985        106
  23.8171        106
  23.8357        114
  23.8542         96
  23.8728         83
  23.8914        104
  23.9100        103
  23.9285        100
  23.9471         97
  23.9657        117
  23.9843         95
  24.0028         96
  24.0214         73
  24.0400         98
  24.0586        124
  24.0771         75
  24.0957         98
  24.1143         94
  24.1329        103
  24.1514         89
  24.1700        115
  24.1886        105
  24.2072        110
  24.2257        114
  24.2443        119
  24.2629        113
  24.2815        127
  24.3000        125
  24.3186        110
  24.3372        114
  24.3558         98
  24.3744        112
  24.3929         97
  24.4115        113
  24.4301        101
  24.4487        101
  24.4672        112
  24.4858        102
  24.5044        104
  24.5230        103
  24.5415        105
  24.5601        105
  24.5787        104
  24.5973         96
  24.6158         85
  24.6344         87
  24.6530        112
  24.6716         96
  24.6901        119
  24.7087        114
  24.7273        110
  24.7459        105
  24.7644        101
  24.7830         93
  24.8016        103
  24.8202         98
  24.8387         94
  24.8573        106
  24.8759         99
  24.8945         84
  24.9130         95
  24.9316        100
  24.9502         99
  24.9688        104
  24.9873        106
  25.0059         92
  25.0245         94
  25.0431         95
  25.0616        109
  25.0802         94
  25.0988        107
  25.1174         83
  25.1360         88
  25.1545        104
  25.1731         93
  25.1917         90
  25.2103        101
  25.2288         97
  25.2474        106
  25.2660         89
  25.2846        106
  25.3031         91
  25.3217         83
  25.3403        105
  25.3589        112
  25.3774        107
  25.3960         92
  25.4146        114
  25.4332         90
  25.4517        101
  25.4703        117
  25.4889         99
  25.5075        100
  25.5260         99
  25.5446         80
  25.5632        101
  25.5818        110
  25.6003         99
  25.6189         98
  25.6375         84
  25.6561         99
  25.6746         95
  25.6932        102
  25.7118         91
  25.7304        106
  25.7489        107
  25.7675        109
  25.7861         84
  25.8047         89
  25.8232         92
  25.8418         85
  25.8604         93
  25.8790         87
  25.8976        101
  25.9161        120
  25.9347         84
  25.9533         84
  25.9719         86
  25.9904         97
  26.0090         97
  26.0276        120
  26.0462         88
  26.0647         96
  26.0833         93
  26.1019         88
  26.1205        106
  26.1390        116
  26.1576         84
  26.1762        104
  26.1948         94
  26.2133         96
  26.2319         93
  26.2505        111
  26.2691        109
  26.2876        106
  26.3062         91
  26.3248         88
  26.3434         96
  26.3619         87
  26.3805         87
  26.3991         99
  26.4177         98
  26.4362         87
  26.4548         90
  26.4734         92
  26.4920         95
  26.5105         93
  26.5291         78
  26.5477         90
  26.5663         87
  26.5848        104
  26.6034         94
  26.6220         95
  26.6406        100
  26.6591        104
  26.6777        106
  26.6963        110
  26.7149         88
  26.7335         96
  26.7520         88
  26.7706         94
  26.7892         88
  26.8078         87
  26.8263         94
  26.8449         78
  26.8635         90
  26.8821        105
  26.9006        104
  26.9192         88
  26.9378         92
  26.9564         87
  26.9749        117
  26.9935        124
  27.0121        101
  27.0307         96
  27.0492         94
  27.0678         95
  27.0864         86
  27.1050         76
  27.1235        112
  27.1421         84
  27.1607         99
  27.1793        117
  27.1978        130
  27.2164        114
  27.2350        115
  27.2536        104
  27.2721        110
  27.2907        106
  27.3093         90
  27.3279         97
  27.3464         80
  27.3650         91
  27.3836         95
  27.4022         96
  27.4207        115
  27.4393         84
  27.4579        109
  27.4765        101
  27.4951         81
  27.5136         73
  27.5322         82
  27.5508         87
  27.5694         67
  27.5879         95
  27.6065         93
  27.6251         91
  27.6437         86
  27.6622         74
  27.6808         87
  27.6994         94
  27.7180         94
  27.7365         87
  27.7551         86
  27.7737        110
  27.7923         79
  27.8108         92
  27.8294         81
  27.8480         69
  27.8666         86
  27.8851         85
  27.9037         90
  27.9223         96
  27.9409         89
  27.9594         75
  27.9780         86
  27.9966         83
  28.0152        105
  28.0337         84
  28.0523         83
  28.0709         96
  28.0895         80
  28.1080         81
  28.1266         86
  28.1452         85
  28.1638         81
  28.1823         98
  28.2009         97
  28.2195         79
  28.2381         92
  28.2567         90
  28.2752        102
  28.2938         87
  28.3124         71
  28.3310         81
  28.3495         77
  28.3681         90
  28.3867         84
  28.4053         80
  28.4238         82
  28.4424         83
  28.4610         90
  28.4796         89
  28.4981         74
  28.5167         81
  28.5353         86
  28.5539         77
  28.5724         91
  28.5910         76
  28.6096         68
  28.6282         79
  28.6467         80
  28.6653         88
  28.6839         84
  28.7025         77
  28.7210         89
  28.7396         80
  28.7582         80
  28.7768         81
  28.7953         62
  28.8139         84
  28.8325         77
  28.8511         85
  28.8696         83
  28.8882         84
  28.9068         88
  28.9254         88
  28.9439         70
  28.9625         88
  28.9811         78
  28.9997         84
  29.0183         87
  29.0368         77
  29.0554         85
  29.0740         82
  29.0926         73
  29.1111         63
  29.1297         81
  29.1483         76
  29.1669         79
  29.1854         95
  29.2040         96
  29.2226         68
  29.2412         83
  29.2597         67
  29.2783         96
  29.2969         65
  29.3155         88
  29.3340         87
  29.3526         87
  29.3712         79
  29.3898         69
  29.4083         65
  29.4269         72
  29.4455         91
  29.4641         84
  29.4826         92
  29.5012         65
  29.5198         71
  29.5384         75
  29.5569         98
  29.5755         72
  29.5941         76
  29.6127         91
  29.6312         78
  29.6498         77
  29.6684         79
  29.6870         89
  29.7055         86
  29.7241         71
  29.7427         82
  29.7613         70
  29.7799         68
  29.7984         87
  29.8170         86
  29.8356         83
  29.8542         87
  29.8727         78
  29.8913         70
  29.9099         74
  29.9285         66
  29.9470         78
  29.9656         75
  29.9842         74
  30.0028         64
  30.0213         74
  30.0399         73
  30.0585         97
  30.0771         81
  30.0956         81
  30.1142         62
  30.1328         94
  30.1514         86
  30.1699         87
  30.1885         91
  30.2071         77
  30.2257         71
  30.2442         73
  30.2628         91
  30.2814         60
  30.3000        108
  30.3185         91
  30.3371        103
  30.3557        130
  30.3743        143
  30.3928        209
  30.4114        133
  30.4300        121
  30.4486        112
  30.4671        141
  30.4857        111
  30.5043        103
  30.5229         74
  30.5415         73
  30.5600         65
  30.5786         83
  30.5972         68
  30.6158         81
  30.6343         91
  30.6529         66
  30.6715         72
  30.6901         72
  30.7086         80
  30.7272         81
  30.7458         76
  30.7644         77
  30.7829         75
  30.8015         69
  30.8201         73
  30.8387         91
  30.8572         71
  30.8758         67
  30.8944         80
  30.9130         64
  30.9315         71
  30.9501         60
  30.9687         82
  30.9873         78
  31.0058         76
  31.0244         87
  31.0430         66
  31.0616         69
  31.0801         62
  31.0987         78
  31.1173         61
  31.1359         85
  31.1544         73
  31.1730         72
  31.1916         63
  31.2102         67
  31.2287         72
  31.2473         51
  31.2659         62
  31.2845         63
  31.3030         60
  31.3216         71
  31.3402         67
  31.3588         71
  31.3774         70
  31.3959         69
  31.4145         67
  31.4331         58
  31.4517         56
  31.4702         82
  31.4888         71
  31.5074         49
  31.5260         50
  31.5445         57
  31.5631         70
  31.5817         70
  31.6003         59
  31.6188         76
  31.6374         60
  31.6560         75
  31.6746         84
  31.6931         53
  31.7117         64
  31.7303         65
  31.7489         67
  31.7674         73
  31.7860         59
  31.8046         74
  31.8232         73
  31.8417         55
  31.8603         71
  31.8789         59
  31.8975         61
  31.9160         70
  31.9346         70
  31.9532         76
  31.9718         76
  31.9903         72
  32.0089         55
  32.0275         65
  32.0461         63
  32.0646         62
  32.0832         64
  32.1018         65
  32.1204         59
  32.1390         77
  32.1575         77
  32.1761         63
  32.1947         62
  32.2133         50
  32.2318         63
  32.2504         62
  32.2690         65
  32.2876         54
  32.3061         64
  32.3247         58
  32.3433         61
  32.3619         73
  32.3804         66
  32.3990         64
  32.4176         73
  32.4362         71
  32.4547         70
  32.4733         72
  32.4919         72
  32.5105         73
  32.5290         64
  32.5476         63
  32.5662         75
  32.5848         60
  32.6033         72
  32.6219         53
  32.6405         65
  32.6591         54
  32.6776         61
  32.6962         65
  32.7148         58
  32.7334         72
  32.7519         50
  32.7705         56
  32.7891         60
  32.8077         55
  32.8262         37
  32.8448         66
  32.8634         63
  32.8820         58
  32.9006         53
  32.9191         61
  32.9377         70
  32.9563         56
  32.9749         60
  32.9934         49
  33.0120         62
  33.0306         68
  33.0492         57
  33.0677         58
  33.0863         68
  33.1049         74
  33.1235         67
  33.1420         57
  33.1606         53
  33.1792         65
  33.1978         60
  33.2163         63
  33.2349         55
  33.2535         51
  33.2721         67
  33.2906         63
  33.3092         66
  33.3278         76
  33.3464         56
  33.3649         56
  33.3835         60
  33.4021         50
  33.4207         55
  33.4392         60
  33.4578         62
  33.4764         60
  33.4950         58
  33.5135         54
  33.5321         69
  33.5507         63
  33.5693         57
  33.5878         76
  33.6064         53
  33.6250         56
  33.6436         54
  33.6622         52
  33.6807         61
  33.6993         57
  33.7179         60
  33.7365         47
  33.7550         51
  33.7736         59
  33.7922         57
  33.8108         48
  33.8293         68
  33.8479         56
  33.8665         57
  33.8851         61
  33.9036         66
  33.9222         52
  33.9408         57
  33.9594         47
  33.9779         44
  33.9965         51
  34.0151         52
  34.0337         65
  34.0522         52
  34.0708         59
  34.0894         70
  34.1080         48
  34.1265         75
  34.1451         58
  34.1637         62
  34.1823         52
  34.2008         52
  34.2194         63
  34.2380         69
  34.2566         59
  34.2751         54
  34.2937         58
  34.3123         51
  34.3309         45
  34.3494         59
  34.3680         57
  34.3866         54
  34.4052         53
  34.4238         53
  34.4423         69
  34.4609         50
  34.4795         62
  34.4981         50
  34.5166         57
  34.5352         54
  34.5538         54
  34.5724         85
  34.5909         52
  34.6095         63
  34.6281         47
  34.6467         49
  34.6652         57
  34.6838         66
  34.7024         56
  34.7210         79
  34.7395         70
  34.7581         78
  34.7767         78
  34.7953         80
  34.8138        101
  34.8324         75
  34.8510         68
  34.8696         70
  34.8881         65
  34.9067         63
  34.9253         50
  34.9439         49
  34.9624         57
  34.9810         54
  34.9996         50
  35.0182         63
  35.0367         58
  35.0553         54
  35.0739         53
  35.0925         65
  35.1110         56
  35.1296         45
  35.1482         61
  35.1668         59
  35.1854         44
  35.2039         49
  35.2225         52
  35.2411         59
  35.2597         49
  35.2782         56
  35.2968         47
  35.3154         60
  35.3340         41
  35.3525         40
  35.3711         62
  35.3897         49
  35.4083         36
  35.4268         51
  35.4454         41
  35.4640         41
  35.4826         36
  35.5011         51
  35.5197         53
  35.5383         59
  35.5569         50
  35.5754         46
  35.5940         51
  35.6126         48
  35.6312         50
  35.6497         59
  35.6683         59
  35.6869         42
  35.7055         51
  35.7240         46
  35.7426         50
  35.7612         38
  35.7798         50
  35.7983         59
  35.8169         44
  35.8355         44
  35.8541         55
  35.8726         49
  35.8912         53
  35.9098         41
  35.9284         55
  35.9469         59
  35.9655         45
  35.9841         50
  36.0027         40
  36.0213         43
  36.0398         47
  36.0584         46
  36.0770         62
  36.0956         48
  36.1141         54
  36.1327         37
  36.1513         51
  36.1699         66
  36.1884         66
  36.2070         46
  36.2256         42
  36.2442         32
  36.2627         46
  36.2813         57
  36.2999         63
  36.3185         41
  36.3370         42
  36.3556         53
  36.3742         56
  36.3928         44
  36.4113         57
  36.4299         51
  36.4485         45
  36.4671         44
  36.4856         50
  36.5042         57
  36.5228         45
  36.5414         46
  36.5599         42
  36.5785         42
  36.5971         59
  36.6157         54
  36.6342         51
  36.6528         41
  36.6714         37
  36.6900         31
  36.7085         40
  36.7271         47
  36.7457         50
  36.7643         42
  36.7829         43
  36.8014         43
  36.8200         57
  36.8386         42
  36.8572         55
  36.8757         42
  36.8943         34
  36.9129         56
  36.9315         47
  36.9500         34
  36.9686         44
  36.9872         50
  37.0058         49
  37.0243         42
  37.0429         52
  37.0615         44
  37.0801         41
  37.0986         38
  37.1172         45
  37.1358         52
  37.1544         42
  37.1729         36
  37.1915         47
  37.2101         52
  37.2287         53
  37.2472         50
  37.2658         47
  37.2844         60
  37.3030         34
  37.3215         48
  37.3401         40
  37.3587         47
  37.3773         50
  37.3958         60
  37.4144         67
  37.4330         83
  37.4516         87
  37.4701         67
  37.4887         50
  37.5073         53
  37.5259         49
  37.5445         58
  37.5630         61
  37.5816         63
  37.6002         51
  37.6188         39
  37.6373         51
  37.6559         45
  37.6745         40
  37.6931         52
  37.7116         52
  37.7302         48
  37.7488         53
  37.7674         47
  37.7859         45
  37.8045         39
  37.8231         47
  37.8417         40
  37.8602         49
  37.8788         45
  37.8974         36
  37.9160         40
  37.9345         45
  37.9531         48
  37.9717         47
  37.9903         42
  38.0088         41
  38.0274         31
  38.0460         44
  38.0646         36
  38.0831         31
  38.1017         47
  38.1203         45
  38.1389         41
  38.1574         30
  38.1760         47
  38.1946         37
  38.2132         40
  38.2317         41
  38.2503         46
  38.2689         51
  38.2875         46
  38.3061         48
  38.3246         43
  38.3432         46
  38.3618         45
  38.3804         41
  38.3989         35
  38.4175         32
  38.4361         47
  38.4547         41
  38.4732         42
  38.4918         36
  38.5104         40
  38.5290         43
  38.5475         47
  38.5661         44
  38.5847         34
  38.6033         38
  38.6218         46
  38.6404         46
  38.6590         40
  38.6776         44
  38.6961         33
  38.7147         45
  38.7333         50
  38.7519         39
  38.7704         44
  38.7890         38
  38.8076         40
  38.8262         47
  38.8447         45
  38.8633         33
  38.8819         51
  38.9005         54
  38.9190         37
  38.9376         46
  38.9562         49
  38.9748         37
  38.9933         42
  39.0119         39
  39.0305         35
  39.0491         42
  39.0677         42
  39.0862         43
  39.1048         41
  39.1234         46
  39.1420         41
  39.1605         38
  39.1791         40
  39.1977         38
  39.2163         34
  39.2348         41
  39.2534         50
  39.2720         34
  39.2906         41
  39.3091         32
  39.3277         43
  39.3463         44
  39.3649         40
  39.3834         45
  39.4020         42
  39.4206         37
  39.4392         41
  39.4577         41
  39.4763         36
  39.4949         35
  39.5135         43
  39.5320         41
  39.5506         40
  39.5692         39
  39.5878         28
  39.6063         31
  39.6249         45
  39.6435         28
  39.6621         31
  39.6806         41
  39.6992         45
  39.7178         30
  39.7364         32
  39.7549         40
  39.7735         38
  39.7921         25
  39.8107         33
  39.8293         41
  39.8478         39
  39.8664         46
  39.8850         42
  39.9036         35
  39.9221         47
  39.9407         48
  39.9593         47
  39.9779         39
  39.9964         33
  40.0150         41
  40.0336         34
  40.0522         39
  40.0707         39
  40.0893         33
  40.1079         48
  40.1265         41
  40.1450         50
  40.1636         33
  40.1822         33
  40.2008         43
  40.2193         39
  40.2379         22
  40.2565         38
  40.2751         52
  40.2936         44
  40.3122         34
  40.3308         36
  40.3494         32
  40.3679         54
  40.3865         28
  40.4051         42
  40.4237         37
  40.4422         41
  40.4608         36
  40.4794         40
  40.4980         34
  40.5165         34
  40.5351         34
  40.5537         42
  40.5723         35
  40.5908         35
  40.6094         29
  40.6280         38
  40.6466         34
  40.6652         35
  40.6837         45
  40.7023         34
  40.7209         34
  40.7395         42
  40.7580         34
  40.7766         42
  40.7952         26
  40.8138         29
  40.8323         38
  40.8509         35
  40.8695         38
  40.8881         42
  40.9066         32
  40.9252         32
  40.9438         33
  40.9624         55
  40.9809         58
  40.9995         43
  41.0181         54
  41.0367         43
  41.0552         49
  41.0738         36
  41.0924         37
  41.1110         31
  41.1295         51
  41.1481         49
  41.1667         31
  41.1853         33
  41.2038         38
  41.2224         44
  41.2410         38
  41.2596         23
  41.2781         33
  41.2967         38
  41.3153         28
  41.3339         37
  41.3524         43
  41.3710         24
  41.3896         34
  41.4082         47
  41.4268         44
  41.4453         27
  41.4639         41
  41.4825         38
  41.5011         29
  41.5196         36
  41.5382         46
  41.5568         37
  41.5754         44
  41.5939         36
  41.6125         46
  41.6311         45
  41.6497         41
  41.6682         44
  41.6868         36
  41.7054         37
  41.7240         28
  41.7425         28
  41.7611         40
  41.7797         34
  41.7983         30
  41.8168         41
  41.8354         41
  41.8540         41
  41.8726         36
  41.8911         39
  41.9097         40
  41.9283         27
  41.9469         38
  41.9654         34
  41.9840         36
  42.0026         40
  42.0212         38
  42.0397         33
  42.0583         31
  42.0769         44
  42.0955         31
  42.1140         47
  42.1326         39
  42.1512         34
  42.1698         36
  42.1884         38
  42.2069         29
  42.2255         31
  42.2441         41
  42.2627         48
  42.2812         38
  42.2998         37
  42.3184         43
  42.3370         34
  42.3555         46
  42.3741         29
  42.3927         33
  42.4113         41
  42.4298         40
  42.4484         40
  42.4670         52
  42.4856         45
  42.5041         39
  42.5227         37
  42.5413         40
  42.5599         34
  42.5784         48
  42.5970         27
  42.6156         41
  42.6342         41
  42.6527         37
  42.6713         35
  42.6899         37
  42.7085         42
  42.7270         40
  42.7456         43
  42.7642         34
  42.7828         34
  42.8013         30
  42.8199         35
  42.8385         38
  42.8571         43
  42.8756         37
  42.8942         33
  42.9128         33
  42.9314         34
  42.9500         35
  42.9685         42
  42.9871         33
  43.0057         35
  43.0243         33
  43.0428         47
  43.0614         40
  43.0800         46
  43.0986         41
  43.1171         34
  43.1357         29
  43.1543         47
  43.1729         42
  43.1914         35
  43.2100         44
  43.2286         44
  43.2472         44
  43.2657         54
  43.2843         46
  43.3029         37
  43.3215         52
  43.3400         55
  43.3586         43
  43.3772         54
  43.3958         43
  43.4143         52
  43.4329         58
  43.4515         52
  43.4701         44
  43.4886         62
  43.5072         53
  43.5258         57
  43.5444         56
  43.5629         56
  43.5815         38
  43.6001         51
  43.6187         50
  43.6372         61
  43.6558         38
  43.6744         36
  43.6930         42
  43.7116         37
  43.7301         29
  43.7487         23
  43.7673         45
  43.7859         35
  43.8044         41
  43.8230         35
  43.8416         29
  43.8602         40
  43.8787         47
  43.8973         37
  43.9159         31
  43.9345         35
  43.9530         43
  43.9716         38
  43.9902         30
  44.0088         41
  44.0273         28
  44.0459         28
  44.0645         41
  44.0831         41
  44.1016         36
  44.1202         26
  44.1388         29
  44.1574         27
  44.1759         36
  44.1945         26
  44.2131         33
  44.2317         39
  44.2502         45
  44.2688         25
  44.2874         35
  44.3060         40
  44.3245         42
  44.3431         41
  44.3617         37
  44.3803         44
  44.3988         30
  44.4174         47
  44.4360         39
  44.4546         36
  44.4732         31
  44.4917         35
  44.5103         36
  44.5289         34
  44.5475         45
  44.5660         38
  44.5846         48
  44.6032         43
  44.6218         37
  44.6403         34
  44.6589         35
  44.6775         38
  44.6961         36
  44.7146         47
  44.7332         38
  44.7518         43
  44.7704         34
  44.7889         44
  44.8075         42
  44.8261         31
  44.8447         39
  44.8632         34
  44.8818         34
  44.9004         33
  44.9190         39
  44.9375         52
  44.9561         33
  44.9747         32
  44.9933         36
  45.0118         36
  45.0304         29
  45.0490         35
  45.0676         25
  45.0861         30
  45.1047         36
  45.1233         35
  45.1419         37
  45.1604         48
  45.1790         35
  45.1976         25
  45.2162         33
  45.2347         29
  45.2533         24
  45.2719         32
  45.2905         34
  45.3091         23
  45.3276         28
  45.3462         29
  45.3648         30
  45.3834         33
  45.4019         41
  45.4205         35
  45.4391         33
  45.4577         35
  45.4762         42
  45.4948         29
  45.5134         37
  45.5320         17
  45.5505         41
  45.5691         46
  45.5877         37
  45.6063         32
  45.6248         23
  45.6434         31
  45.6620         37
  45.6806         34
  45.6991         36
  45.7177         34
  45.7363         33
  45.7549         41
  45.7734         33
  45.7920         37
  45.8106         28
  45.8292         47
  45.8477         31
  45.8663         33
  45.8849         46
  45.9035         44
  45.9220         31
  45.9406         32
  45.9592         26
  45.9778         41
  45.9963         37
  46.0149         45
  46.0335         34
  46.0521         31
  46.0707         34
  46.0892         34
  46.1078         38
  46.1264         28
  46.1450         20
  46.1635         41
  46.1821         24
  46.2007         23
  46.2193         38
  46.2378         39
  46.2564         38
  46.2750         35
  46.2936         33
  46.3121         31
  46.3307         44
  46.3493         32
  46.3679         33
  46.3864         33
  46.4050         23
  46.4236         26
  46.4422         35
  46.4607         27
  46.4793         33
  46.4979         38
  46.5165         28
  46.5350         34
  46.5536         34
  46.5722         31
  46.5908         30
  46.6093         23
  46.6279         36
  46.6465         30
  46.6651         38
  46.6836         39
  46.7022         33
  46.7208         35
  46.7394         21
  46.7579         31
  46.7765         35
  46.7951         35
  46.8137         35
  46.8323         29
  46.8508         23
  46.8694         31
  46.8880         36
  46.9066         33
  46.9251         29
  46.9437         23
  46.9623         30
  46.9809         26
  46.9994         36
  47.0180         35
  47.0366         29
  47.0552         27
  47.0737         33
  47.0923         31
  47.1109         32
  47.1295         19
  47.1480         24
  47.1666         35
  47.1852         34
  47.2038         22
  47.2223         31
  47.2409         27
  47.2595         35
  47.2781         29
  47.2966         24
  47.3152         35
  47.3338         31
  47.3524         20
  47.3709         24
  47.3895         25
  47.4081         34
  47.4267         27
  47.4452         35
  47.4638         30
  47.4824         32
  47.5010         35
  47.5195         33
  47.5381         33
  47.5567         30
  47.5753         32
  47.5939         31
  47.6124         39
  47.6310         30
  47.6496         31
  47.6682         30
  47.6867         25
  47.7053         31
  47.7239         41
  47.7425         20
  47.7610         27
  47.7796         27
  47.7982         37
  47.8168         38
  47.8353         44
  47.8539         37
  47.8725         25
  47.8911         31
  47.9096         22
  47.9282         35
  47.9468         26
  47.9654         29
  47.9839         33
  48.0025         24
  48.0211         27
  48.0397         32
  48.0582         39
  48.0768         33
  48.0954         35
  48.1140         38
  48.1325         32
  48.1511         37
  48.1697         31
  48.1883         34
  48.2068         49
  48.2254         32
  48.2440         26
  48.2626         34
  48.2811         28
  48.2997         31
  48.3183         28
  48.3369         45
  48.3555         37
  48.3740         28
  48.3926         39
  48.4112         41
  48.4298         32
  48.4483         36
  48.4669         30
  48.4855         28
  48.5041         35
  48.5226         45
  48.5412         31
  48.5598         37
  48.5784         31
  48.5969         35
  48.6155         30
  48.6341         26
  48.6527         32
  48.6712         32
  48.6898         29
  48.7084         22
  48.7270         42
  48.7455         35
  48.7641         38
  48.7827         32
  48.8013         31
  48.8198         37
  48.8384         36
  48.8570         35
  48.8756         32
  48.8941         36
  48.9127         43
  48.9313         51
  48.9499         58
  48.9684         50
  48.9870         30
  49.0056         46
  49.0242         36
  49.0427         45
  49.0613         38
  49.0799         47
  49.0985         42
  49.1171         41
  49.1356         40
  49.1542         36
  49.1728         34
  49.1914         45
  49.2099         20
  49.2285         26
  49.2471         33
  49.2657         32
  49.2842         36
  49.3028         30
  49.3214         25
  49.3400         21
  49.3585         28
  49.3771         33
  49.3957         33
  49.4143         33
  49.4328         22
  49.4514         36
  49.4700         29
  49.4886         36
  49.5071         26
  49.5257         37
  49.5443         37
  49.5629         48
  49.5814         39
  49.6000         24
  49.6186         19
  49.6372         41
  49.6557         30
  49.6743         37
  49.6929         35
  49.7115         21
  49.7300         33
  49.7486         30
  49.7672         21
  49.7858         23
  49.8043         20
  49.8229         36
  49.8415         30
  49.8601         40
  49.8786         30
  49.8972         36
  49.9158         25
  49.9344         37
  49.9530         36
  49.9715         31
  49.9901         35
  50.0087         33
  50.0273         31
  50.0458         39
  50.0644         40
  50.0830         36
  50.1016         27
  50.1201         37
  50.1387         30
  50.1573         31
  50.1759         26
  50.1944         33
  50.2130         31
  50.2316         27
  50.2502         32
  50.2687         28
  50.2873         32
  50.3059         37
  50.3245         25
  50.3430         35
  50.3616         34
  50.3802         35
  50.3988         37
  50.4173         35
  50.4359         31
  50.4545         37
  50.4731         40
  50.4916         29
  50.5102         28
  50.5288         31
  50.5474         33
  50.5659         26
  50.5845         35
  50.6031         27
  50.6217         26
  50.6402         28
  50.6588         23
  50.6774         35
  50.6960         26
  50.7146         29
  50.7331         35
  50.7517         19
  50.7703         36
  50.7889         28
  50.8074         33
  50.8260         36
  50.8446         39
  50.8632         33
  50.8817         32
  50.9003         25
  50.9189         33
  50.9375         40
  50.9560         27
  50.9746         38
  50.9932         19
  51.0118         17
  51.0303         33
  51.0489         30
  51.0675         31
  51.0861         28
  51.1046         24
  51.1232         25
  51.1418         37
  51.1604         27
  51.1789         29
  51.1975         29
  51.2161         26
  51.2347         21
  51.2532         35
  51.2718         42
  51.2904         25
  51.3090         29
  51.3275         26
  51.3461         28
  51.3647         21
  51.3833         42
  51.4018         35
  51.4204         31
  51.4390         35
  51.4576         26
  51.4762         39
  51.4947         19
  51.5133         25
  51.5319         32
  51.5505         26
  51.5690         28
  51.5876         24
  51.6062         30
  51.6248         35
  51.6433         26
  51.6619         36
  51.6805         27
  51.6991         31
  51.7176         27
  51.7362         32
  51.7548         32
  51.7734         27
  51.7919         34
  51.8105         31
  51.8291         35
  51.8477         42
  51.8662         34
  51.8848         25
  51.9034         30
  51.9220         30
  51.9405         42
  51.9591         41
  51.9777         23
  51.9963         22
  52.0148         32
  52.0334         25
  52.0520         31
  52.0706         31
  52.0891         28
  52.1077         24
  52.1263         20
  52.1449         32
  52.1634         29
  52.1820         27
  52.2006         38
  52.2192         33
  52.2378         22
  52.2563         27
  52.2749         31
  52.2935         23
  52.3121         25
  52.3306         44
  52.3492         32
  52.3678         25
  52.3864         27
  52.4049         31
  52.4235         30
  52.4421         35
  52.4607         25
  52.4792         30
  52.4978         26
  52.5164         28
  52.5350         24
  52.5535         42
  52.5721         30
  52.5907         27
  52.6093         34
  52.6278         39
  52.6464         24
  52.6650         29
  52.6836         28
  52.7021         34
  52.7207         29
  52.7393         19
  52.7579         20
  52.7764         29
  52.7950         23
  52.8136         23
  52.8322         38
  52.8507         28
  52.8693         35
  52.8879         33
  52.9065         33
  52.9250         30
  52.9436         36
  52.9622         39
  52.9808         30
  52.9994         33
  53.0179         35
  53.0365         30
  53.0551         33
  53.0737         30
  53.0922         31
  53.1108         26
  53.1294         30
  53.1480         31
  53.1665         31
  53.1851         37
  53.2037         34
  53.2223         25
  53.2408         25
  53.2594         29
  53.2780         25
  53.2966         31
  53.3151         32
  53.3337         33
  53.3523         37
  53.3709         25
  53.3894         44
  53.4080         30
  53.4266         23
  53.4452         25
  53.4637         28
  53.4823         41
  53.5009         17
  53.5195         32
  53.5380         29
  53.5566         41
  53.5752         37
  53.5938         33
  53.6123         32
  53.6309         33
  53.6495         31
  53.6681         22
  53.6866         29
  53.7052         33
  53.7238         28
  53.7424         27
  53.7610         26
  53.7795         22
  53.7981         24
  53.8167         30
  53.8353         23
  53.8538         20
  53.8724         29
  53.8910         26
  53.9096         27
  53.9281         29
  53.9467         46
  53.9653         45
  53.9839         42
  54.0024         48
  54.0210         32
  54.0396         37
  54.0582         33
  54.0767         32
  54.0953         32
  54.1139         38
  54.1325         39
  54.1510         42
  54.1696         30
  54.1882         28
  54.2068         23
  54.2253         32
  54.2439         28
  54.2625         30
  54.2811         34
  54.2996         29
  54.3182         29
  54.3368         24
  54.3554         27
  54.3739         26
  54.3925         27
  54.4111         22
  54.4297         30
  54.4482         23
  54.4668         37
  54.4854         34
  54.5040         32
  54.5225         31
  54.5411         32
  54.5597         35
  54.5783         25
  54.5969         28
  54.6154         43
  54.6340         28
  54.6526         38
  54.6712         31
  54.6897         25
  54.7083         32
  54.7269         36
  54.7455         27
  54.7640         31
  54.7826         26
  54.8012         30
  54.8198         32
  54.8383         28
  54.8569         19
  54.8755         29
  54.8941         31
  54.9126         23
  54.9312         31
  54.9498         17
  54.9684         35
  54.9869         35
  55.0055         22
  55.0241         19
  55.0427         34
  55.0612         34
  55.0798         34
  55.0984         23
  55.1170         25
  55.1355         27
  55.1541         27
  55.1727         30
  55.1913         27
  55.2098         32
  55.2284         22
  55.2470         25
  55.2656         29
  55.2841         21
  55.3027         25
  55.3213         20
  55.3399         27
  55.3585         28
  55.3770         32
  55.3956         28
  55.4142         25
  55.4328         30
  55.4513         36
  55.4699         26
  55.4885         24
  55.5071         27
  55.5256         35
  55.5442         36
  55.5628         38
  55.5814         18
  55.5999         31
  55.6185         39
  55.6371         23
  55.6557         25
  55.6742         32
  55.6928         17
  55.7114         30
  55.7300         25
  55.7485         29
  55.7671         35
  55.7857         23
  55.8043         25
  55.8228         29
  55.8414         31
  55.8600         21
  55.8786         33
  55.8971         19
  55.9157         20
  55.9343         33
  55.9529         37
  55.9714         22
  55.9900         39
  56.0086         25
  56.0272         29
  56.0457         34
  56.0643         24
  56.0829         29
  56.1015         36
  56.1201         33
  56.1386         26
  56.1572         27
  56.1758         31
  56.1944         31
  56.2129         41
  56.2315         25
  56.2501         31
  56.2687         30
  56.2872         22
  56.3058         35
  56.3244         27
  56.3430         25
  56.3615         29
  56.3801         25
  56.3987         33
  56.4173         34
  56.4358         35
  56.4544         25
  56.4730         26
  56.4916         31
  56.5101         34
  56.5287         20
  56.5473         21
  56.5659         27
  56.5844         32
  56.6030         18
  56.6216         39
  56.6402         20
  56.6587         27
  56.6773         28
  56.6959         28
  56.7145         29
  56.7330         30
  56.7516         25
  56.7702         32
  56.7888         39
  56.8073         32
  56.8259         29
  56.8445         34
  56.8631         28
  56.8817         26
  56.9002         29
  56.9188         31
  56.9374         26
  56.9560         27
  56.9745         23
  56.9931         31
  57.0117         34
  57.0303         37
  57.0488         28
  57.0674         29
  57.0860         26
  57.1046         25
  57.1231         24
  57.1417         21
  57.1603         29
  57.1789         27
  57.1974         29
  57.2160         17
  57.2346         13
  57.2532         22
  57.2717         28
  57.2903         21
  57.3089         21
  57.3275         27
  57.3460         23
  57.3646         24
  57.3832         30
  57.4018         27
  57.4203         26
  57.4389         30
  57.4575         23
  57.4761         18
  57.4946         29
  57.5132         18
  57.5318         30
  57.5504         32
  57.5689         31
  57.5875         34
  57.6061         24
  57.6247         22
  57.6433         32
  57.6618         22
  57.6804         25
  57.6990         42
  57.7176         33
  57.7361         34
  57.7547         23
  57.7733         27
  57.7919         28
  57.8104         27
  57.8290         27
  57.8476         32
  57.8662         30
  57.8847         24
  57.9033         15
  57.9219         19
  57.9405         21
  57.9590         26
  57.9776         21
  57.9962         40
  58.0148         30
  58.0333         36
  58.0519         28
  58.0705         20
  58.0891         22
  58.1076         20
  58.1262         26
  58.1448         31
  58.1634         31
  58.1819         22
  58.2005         25
  58.2191         22
  58.2377         23
  58.2562         24
  58.2748         24
  58.2934         21
  58.3120         33
  58.3305         24
  58.3491         23
  58.3677         26
  58.3863         22
  58.4049         23
  58.4234         26
  58.4420         27
  58.4606         27
  58.4792         27
  58.4977         25
  58.5163         33
  58.5349         27
  58.5535         30
  58.5720         26
  58.5906         36
  58.6092         29
  58.6278         25
  58.6463         24
  58.6649         27
  58.6835         28
  58.7021         37
  58.7206         22
  58.7392         24
  58.7578         23
  58.7764         25
  58.7949         24
  58.8135         32
  58.8321         28
  58.8507         24
  58.8692         28
  58.8878         32
  58.9064         27
  58.9250         26
  58.9435         27
  58.9621         33
  58.9807         20
  58.9993         24
  59.0178         37
  59.0364         25
  59.0550         25
  59.0736         23
  59.0921         32
  59.1107         27
  59.1293         21
  59.1479         25
  59.1664         29
  59.1850         15
  59.2036         27
  59.2222         18
  59.2408         32
  59.2593         30
  59.2779         22
  59.2965         30
  59.3151         24
  59.3336         29
  59.3522         23
  59.3708         16
  59.3894         28
  59.4079         28
  59.4265         27
  59.4451         21
  59.4637         39
  59.4822         27
  59.5008         30
  59.5194         24
  59.5380         28
  59.5565         26
  59.5751         25
  59.5937         35
  59.6123         30
  59.6308         30
  59.6494         34
  59.6680         29
  59.6866         30
  59.7051         28
  59.7237         28
  59.7423         25
  59.7609         17
  59.7794         25
  59.7980         29
  59.8166         34
  59.8352         30
  59.8537         26
  59.8723         32
  59.8909         28
  59.9095         21
  59.9280         36
  59.9466         21
  59.9652         32
  59.9838         27
  60.0024         42
