; (content of file Y:\Sam\Apurva-07-20-2022\puck4\ML_20220718_32_SJD_0_LaB6-2min.raw)
_FILEVERSION = 3
_SAMPLE = ML_20220718_32_SJD_0_LaB6-2min
_+SAMPLE = 
_SITE = USA
_USER = Administrator
_GONIOMETER_CODE = 20
; Goniometer : D8 theta/2theta, stage : Unknown
_ATTACHMENTS_CODE = 0
_GONIOMETER_RADIUS = 200.5
_FIXED_DIVSLIT = 0.6
_FIXED_SAMPLESLIT = 0
_SOLLER_SLITS = 2
_FIXED_DETSLIT = 9.55
_MONOCHROMATOR = 0
; Incident beam monochromator : None
_SOLLER_SLITS_2 = N
_THIN_FILM = N
_BETA_FILTER = Y
_FIXED_ANTISLIT = 5.89
_ANALYZER_CODE = 0
; Received beam analyzer : None
_DATEMEASURED = "26-Jul-2022 09:08:50"
_WL_UNIT = A
_WL1 = 1.5406
_WL2 = 1.54439
_WL3 = 1.39222
_WLRATIO = 0.5
_ANODE = Cu
_V4_INF_CREATOR = XRDWizard
_V4_INF_CREATOR_VERSION = V2.9.0.22
_V4_INF_WIZARD_VERSION = V2.9.0.22
_V4_INF_WIZARD_ADDINS = V2.9.0.22
_V4_INF_WIZARD_DOCTYPE = XRD
_V4_INF_OSUSER = McQueenLab
_V4_INF_USER = Administrator
_V4_INF_SITE = USA
_V4_INF_SAMPLEID = ML_20220718_32_SJD_0_LaB6-2min

; Data for range 1
_DRIVE = COUPLED
_STEPTIME = 5.64
_STEPSIZE = 0.0185756
_STEPMODE = C
_START = 5
_THETA = 2.5
_2THETA = 5
_KHI = 0
_PHI = 0
_X = 0
_Y = 0
_Z = 0
_DETECTOR = 5
; Detector type : Unknown
_DETECTORSLIT = unkn
_AUX1 = 0
_AUX2 = 0
_AUX3 = 0
_TIMESTARTED = 15
_TEMP_RATE = -1
_TEMP_DELAY = -1
_KV = 40
_MA = 40
_RANGE_WL = 1.5406
_3DPLANE = 0
_V4_ADDITIONALDETECTOR = 257
_V4_PSD2THETA = 3.4187
_V4_PSDCHANNEL1 = 0
_V4_PSDAPERTURE = 12.68
_V4_PSDTYPE = 5
_V4_PSDFIXED = 0
_V4_COUNTERS_MASK = 4096
_V4_DRIVES_MASK = 0
_V4_ENCODERS_MASK = 0
_2THETACOUNTS = 1
; 2THETA  PSD
   5.0000        139
   5.0186        134
   5.0372        124
   5.0557        124
   5.0743        125
   5.0929        129
   5.1115        124
   5.1300        132
   5.1486        137
   5.1672        133
   5.1858        122
   5.2043        134
   5.2229        139
   5.2415        134
   5.2601        121
   5.2786        123
   5.2972        109
   5.3158        115
   5.3344        132
   5.3529        114
   5.3715        100
   5.3901        113
   5.4087        131
   5.4272        114
   5.4458        113
   5.4644        104
   5.4830        120
   5.5015        108
   5.5201        114
   5.5387        132
   5.5573        124
   5.5758        111
   5.5944        121
   5.6130        105
   5.6316        109
   5.6501         99
   5.6687         93
   5.6873        116
   5.7059         99
   5.7244        112
   5.7430        103
   5.7616         95
   5.7802         93
   5.7988         88
   5.8173        112
   5.8359         92
   5.8545        107
   5.8731         90
   5.8916         95
   5.9102        105
   5.9288        109
   5.9474        112
   5.9659         91
   5.9845        119
   6.0031         91
   6.0217         83
   6.0402        112
   6.0588         90
   6.0774         99
   6.0960        100
   6.1145         92
   6.1331        111
   6.1517         89
   6.1703         74
   6.1888         93
   6.2074         99
   6.2260         93
   6.2446         97
   6.2631        110
   6.2817         82
   6.3003        102
   6.3189        102
   6.3374         81
   6.3560         94
   6.3746         97
   6.3932        104
   6.4117         87
   6.4303         94
   6.4489         82
   6.4675         90
   6.4860         93
   6.5046         74
   6.5232         91
   6.5418         83
   6.5604         96
   6.5789         89
   6.5975         95
   6.6161         86
   6.6347         95
   6.6532         73
   6.6718         84
   6.6904         78
   6.7090         85
   6.7275         87
   6.7461         86
   6.7647         90
   6.7833         76
   6.8018         93
   6.8204         86
   6.8390         82
   6.8576         76
   6.8761         84
   6.8947         88
   6.9133         89
   6.9319         90
   6.9504         75
   6.9690         99
   6.9876         97
   7.0062         75
   7.0247         78
   7.0433         86
   7.0619         67
   7.0805         75
   7.0990         72
   7.1176         73
   7.1362         63
   7.1548         70
   7.1733         81
   7.1919         85
   7.2105         94
   7.2291        106
   7.2476         83
   7.2662         79
   7.2848         89
   7.3034         76
   7.3220         74
   7.3405         90
   7.3591        101
   7.3777         80
   7.3963         73
   7.4148         68
   7.4334         73
   7.4520         79
   7.4706         93
   7.4891         85
   7.5077         66
   7.5263         79
   7.5449         83
   7.5634         84
   7.5820         82
   7.6006         70
   7.6192         80
   7.6377         93
   7.6563         82
   7.6749         87
   7.6935         88
   7.7120         95
   7.7306         80
   7.7492         94
   7.7678        104
   7.7863         74
   7.8049         96
   7.8235        103
   7.8421        101
   7.8606        100
   7.8792         85
   7.8978         85
   7.9164         94
   7.9349         72
   7.9535        100
   7.9721        107
   7.9907        100
   8.0092         96
   8.0278         91
   8.0464        106
   8.0650         97
   8.0835         84
   8.1021         97
   8.1207         97
   8.1393         79
   8.1579         91
   8.1764         96
   8.1950         92
   8.2136        103
   8.2322         95
   8.2507         84
   8.2693         97
   8.2879         92
   8.3065         85
   8.3250         77
   8.3436         84
   8.3622         86
   8.3808         85
   8.3993         88
   8.4179         87
   8.4365         94
   8.4551        101
   8.4736         95
   8.4922         97
   8.5108        114
   8.5294        101
   8.5479         90
   8.5665        105
   8.5851        112
   8.6037         96
   8.6222        112
   8.6408        101
   8.6594        114
   8.6780         97
   8.6965        108
   8.7151        101
   8.7337         85
   8.7523         93
   8.7708        100
   8.7894        111
   8.8080         83
   8.8266        119
   8.8451         91
   8.8637        111
   8.8823         94
   8.9009        114
   8.9195        110
   8.9380        119
   8.9566        105
   8.9752        127
   8.9938         96
   9.0123        106
   9.0309        100
   9.0495        104
   9.0681        119
   9.0866        120
   9.1052        100
   9.1238        103
   9.1424         97
   9.1609        100
   9.1795        105
   9.1981        119
   9.2167        132
   9.2352         94
   9.2538        110
   9.2724        106
   9.2910        111
   9.3095         97
   9.3281        113
   9.3467        103
   9.3653         99
   9.3838        118
   9.4024        123
   9.4210        114
   9.4396        108
   9.4581        116
   9.4767        119
   9.4953         89
   9.5139        110
   9.5324        106
   9.5510        108
   9.5696        117
   9.5882        141
   9.6067        110
   9.6253        124
   9.6439        122
   9.6625        113
   9.6811        121
   9.6996         96
   9.7182        121
   9.7368        100
   9.7554        115
   9.7739        128
   9.7925        122
   9.8111        115
   9.8297        120
   9.8482        131
   9.8668        132
   9.8854        128
   9.9040        121
   9.9225        119
   9.9411         95
   9.9597        129
   9.9783        103
   9.9968        133
  10.0154        113
  10.0340        131
  10.0526        132
  10.0711        115
  10.0897        121
  10.1083        115
  10.1269        128
  10.1454        127
  10.1640        131
  10.1826        139
  10.2012        139
  10.2197        119
  10.2383        111
  10.2569        119
  10.2755        132
  10.2940        104
  10.3126        113
  10.3312        129
  10.3498        107
  10.3683        115
  10.3869        134
  10.4055        114
  10.4241        139
  10.4427        115
  10.4612        119
  10.4798        115
  10.4984        124
  10.5170        108
  10.5355        144
  10.5541        113
  10.5727        118
  10.5913         95
  10.6098        125
  10.6284        107
  10.6470        124
  10.6656        108
  10.6841        114
  10.7027        105
  10.7213        103
  10.7399         95
  10.7584        104
  10.7770        108
  10.7956        114
  10.8142        110
  10.8327        109
  10.8513        120
  10.8699        132
  10.8885        133
  10.9070        115
  10.9256        115
  10.9442        122
  10.9628        111
  10.9813        116
  10.9999        110
  11.0185        132
  11.0371        139
  11.0556        129
  11.0742        105
  11.0928        116
  11.1114        119
  11.1299        119
  11.1485        148
  11.1671        115
  11.1857        122
  11.2043        101
  11.2228        107
  11.2414        118
  11.2600        120
  11.2786        123
  11.2971        116
  11.3157        109
  11.3343        102
  11.3529        109
  11.3714        128
  11.3900        112
  11.4086        101
  11.4272        111
  11.4457        122
  11.4643        109
  11.4829        117
  11.5015        123
  11.5200        108
  11.5386        112
  11.5572        113
  11.5758        123
  11.5943        116
  11.6129        111
  11.6315        114
  11.6501        106
  11.6686        122
  11.6872        105
  11.7058        110
  11.7244        114
  11.7429        116
  11.7615        101
  11.7801        116
  11.7987        123
  11.8172        116
  11.8358        140
  11.8544        108
  11.8730        128
  11.8915        110
  11.9101        105
  11.9287        112
  11.9473        109
  11.9659        122
  11.9844         73
  12.0030        110
  12.0216        120
  12.0402         95
  12.0587        106
  12.0773        113
  12.0959        120
  12.1145        105
  12.1330        119
  12.1516        118
  12.1702        124
  12.1888        128
  12.2073        130
  12.2259        107
  12.2445        113
  12.2631        104
  12.2816         99
  12.3002        114
  12.3188        115
  12.3374        114
  12.3559        106
  12.3745        113
  12.3931        107
  12.4117         86
  12.4302        116
  12.4488         90
  12.4674        101
  12.4860         85
  12.5045        115
  12.5231        100
  12.5417        104
  12.5603        109
  12.5788         90
  12.5974        114
  12.6160        108
  12.6346        111
  12.6531        120
  12.6717        100
  12.6903         88
  12.7089        101
  12.7274        107
  12.7460         99
  12.7646         87
  12.7832         93
  12.8018        117
  12.8203        101
  12.8389        115
  12.8575        102
  12.8761        105
  12.8946        102
  12.9132        110
  12.9318        111
  12.9504        116
  12.9689        118
  12.9875        114
  13.0061         90
  13.0247         82
  13.0432         99
  13.0618         88
  13.0804        103
  13.0990         88
  13.1175        107
  13.1361        109
  13.1547        110
  13.1733        107
  13.1918         81
  13.2104        110
  13.2290        105
  13.2476         93
  13.2661         92
  13.2847        111
  13.3033         95
  13.3219        101
  13.3404         95
  13.3590        109
  13.3776         95
  13.3962         93
  13.4147        112
  13.4333         91
  13.4519         92
  13.4705         78
  13.4890        109
  13.5076         80
  13.5262         68
  13.5448         94
  13.5634        106
  13.5819         99
  13.6005         96
  13.6191         73
  13.6377        102
  13.6562         95
  13.6748        105
  13.6934        104
  13.7120         90
  13.7305        104
  13.7491         91
  13.7677         84
  13.7863        101
  13.8048         85
  13.8234         93
  13.8420         87
  13.8606         87
  13.8791         87
  13.8977         82
  13.9163         87
  13.9349         85
  13.9534        115
  13.9720         83
  13.9906         73
  14.0092         99
  14.0277        106
  14.0463         80
  14.0649         68
  14.0835         96
  14.1020         84
  14.1206         97
  14.1392        101
  14.1578        107
  14.1763         85
  14.1949         79
  14.2135         88
  14.2321         85
  14.2506         85
  14.2692         88
  14.2878        103
  14.3064         87
  14.3250        100
  14.3435         92
  14.3621         77
  14.3807         83
  14.3993         89
  14.4178         91
  14.4364         93
  14.4550         79
  14.4736         90
  14.4921         97
  14.5107         72
  14.5293        103
  14.5479         91
  14.5664        100
  14.5850         93
  14.6036         89
  14.6222        101
  14.6407         77
  14.6593         91
  14.6779         86
  14.6965        104
  14.7150         96
  14.7336         82
  14.7522         88
  14.7708         83
  14.7893         84
  14.8079         77
  14.8265         98
  14.8451         67
  14.8636         70
  14.8822         78
  14.9008         81
  14.9194         74
  14.9379         71
  14.9565         76
  14.9751         86
  14.9937         93
  15.0122         87
  15.0308         84
  15.0494         80
  15.0680         72
  15.0866         92
  15.1051         92
  15.1237         82
  15.1423         73
  15.1609         79
  15.1794         64
  15.1980         88
  15.2166         86
  15.2352         92
  15.2537         86
  15.2723         77
  15.2909         55
  15.3095        100
  15.3280         80
  15.3466         85
  15.3652         75
  15.3838         63
  15.4023         77
  15.4209         89
  15.4395         92
  15.4581         78
  15.4766         73
  15.4952         92
  15.5138         93
  15.5324         87
  15.5509         73
  15.5695         89
  15.5881         81
  15.6067         88
  15.6252         92
  15.6438         83
  15.6624         96
  15.6810         81
  15.6995         86
  15.7181         87
  15.7367         85
  15.7553         72
  15.7738         70
  15.7924         69
  15.8110         78
  15.8296         91
  15.8482         80
  15.8667         88
  15.8853         82
  15.9039         69
  15.9225         89
  15.9410         85
  15.9596         77
  15.9782         93
  15.9968        101
  16.0153         92
  16.0339         59
  16.0525         85
  16.0711         88
  16.0896         74
  16.1082         65
  16.1268         77
  16.1454         81
  16.1639         66
  16.1825         79
  16.2011         85
  16.2197         71
  16.2382         72
  16.2568         92
  16.2754         76
  16.2940         82
  16.3125         99
  16.3311         96
  16.3497         62
  16.3683         80
  16.3868         63
  16.4054         93
  16.4240         77
  16.4426         74
  16.4611         85
  16.4797         79
  16.4983         78
  16.5169         82
  16.5354         87
  16.5540         79
  16.5726         67
  16.5912         96
  16.6097         79
  16.6283         63
  16.6469         93
  16.6655         77
  16.6841         90
  16.7026         77
  16.7212         82
  16.7398         87
  16.7584         72
  16.7769         81
  16.7955         84
  16.8141         90
  16.8327         82
  16.8512         73
  16.8698         76
  16.8884         74
  16.9070         81
  16.9255         73
  16.9441         79
  16.9627         80
  16.9813         78
  16.9998         75
  17.0184         93
  17.0370         84
  17.0556         75
  17.0741         89
  17.0927         71
  17.1113         72
  17.1299         82
  17.1484         81
  17.1670         72
  17.1856         73
  17.2042         81
  17.2227         66
  17.2413         70
  17.2599         91
  17.2785         92
  17.2970         83
  17.3156         95
  17.3342         65
  17.3528         84
  17.3713         82
  17.3899         93
  17.4085         93
  17.4271         68
  17.4457         82
  17.4642         75
  17.4828         80
  17.5014         73
  17.5200         77
  17.5385         82
  17.5571         83
  17.5757         70
  17.5943         80
  17.6128         73
  17.6314         91
  17.6500         70
  17.6686         80
  17.6871         77
  17.7057         83
  17.7243         86
  17.7429         86
  17.7614         90
  17.7800         93
  17.7986         84
  17.8172         73
  17.8357         83
  17.8543         86
  17.8729         84
  17.8915         84
  17.9100         84
  17.9286         72
  17.9472         89
  17.9658         80
  17.9843         79
  18.0029         89
  18.0215         71
  18.0401         90
  18.0586         69
  18.0772         73
  18.0958         78
  18.1144         87
  18.1329         69
  18.1515         64
  18.1701         89
  18.1887         83
  18.2073        102
  18.2258         84
  18.2444        100
  18.2630         94
  18.2816         78
  18.3001         67
  18.3187         69
  18.3373         96
  18.3559         64
  18.3744         88
  18.3930         85
  18.4116         89
  18.4302         75
  18.4487         78
  18.4673         81
  18.4859         92
  18.5045         90
  18.5230        100
  18.5416         80
  18.5602         79
  18.5788         87
  18.5973         76
  18.6159         78
  18.6345         73
  18.6531         81
  18.6716         80
  18.6902         85
  18.7088         74
  18.7274         79
  18.7459         90
  18.7645        102
  18.7831         87
  18.8017         83
  18.8202         63
  18.8388         76
  18.8574         86
  18.8760        105
  18.8945         90
  18.9131         79
  18.9317         72
  18.9503        103
  18.9689         65
  18.9874         88
  19.0060         96
  19.0246         82
  19.0432         81
  19.0617         84
  19.0803         92
  19.0989         83
  19.1175         93
  19.1360         83
  19.1546         77
  19.1732         78
  19.1918         82
  19.2103         86
  19.2289         96
  19.2475         78
  19.2661         87
  19.2846         88
  19.3032         96
  19.3218         79
  19.3404         80
  19.3589         99
  19.3775         88
  19.3961        111
  19.4147        105
  19.4332         95
  19.4518         81
  19.4704         88
  19.4890         94
  19.5075         72
  19.5261        100
  19.5447         88
  19.5633         65
  19.5818         94
  19.6004         89
  19.6190        102
  19.6376         89
  19.6561         93
  19.6747         86
  19.6933         82
  19.7119         76
  19.7305         85
  19.7490         76
  19.7676         71
  19.7862         88
  19.8048         96
  19.8233         74
  19.8419         78
  19.8605         81
  19.8791         83
  19.8976         75
  19.9162        100
  19.9348         74
  19.9534         96
  19.9719        102
  19.9905         88
  20.0091         79
  20.0277         68
  20.0462         80
  20.0648         90
  20.0834         95
  20.1020         77
  20.1205         95
  20.1391         97
  20.1577         89
  20.1763         75
  20.1948         94
  20.2134        100
  20.2320        103
  20.2506        113
  20.2691         87
  20.2877         84
  20.3063         89
  20.3249         71
  20.3434        103
  20.3620         86
  20.3806         88
  20.3992         97
  20.4177         89
  20.4363         80
  20.4549        101
  20.4735         98
  20.4921         73
  20.5106         86
  20.5292        102
  20.5478        101
  20.5664         85
  20.5849         86
  20.6035         89
  20.6221         93
  20.6407         82
  20.6592         84
  20.6778        105
  20.6964         90
  20.7150        112
  20.7335         95
  20.7521         86
  20.7707        101
  20.7893        101
  20.8078         72
  20.8264         93
  20.8450         98
  20.8636         95
  20.8821         76
  20.9007        104
  20.9193        102
  20.9379         81
  20.9564        110
  20.9750        112
  20.9936         88
  21.0122        104
  21.0307         99
  21.0493         99
  21.0679        107
  21.0865         81
  21.1050         82
  21.1236        118
  21.1422        117
  21.1608         89
  21.1793        141
  21.1979        139
  21.2165        179
  21.2351        173
  21.2537        166
  21.2722        122
  21.2908        160
  21.3094        164
  21.3280        188
  21.3465        230
  21.3651        243
  21.3837        201
  21.4023        207
  21.4208        160
  21.4394        120
  21.4580        108
  21.4766        129
  21.4951        105
  21.5137        112
  21.5323        101
  21.5509        101
  21.5694        109
  21.5880        105
  21.6066        117
  21.6252         84
  21.6437        105
  21.6623         98
  21.6809        100
  21.6995        101
  21.7180         89
  21.7366         79
  21.7552         72
  21.7738        104
  21.7923        104
  21.8109         89
  21.8295        103
  21.8481         96
  21.8666        109
  21.8852         82
  21.9038        106
  21.9224         89
  21.9409         97
  21.9595         84
  21.9781        118
  21.9967         90
  22.0152        106
  22.0338         98
  22.0524         98
  22.0710         92
  22.0896         89
  22.1081         93
  22.1267         95
  22.1453        100
  22.1639        100
  22.1824         92
  22.2010         95
  22.2196         95
  22.2382         96
  22.2567         97
  22.2753         76
  22.2939         85
  22.3125         92
  22.3310        110
  22.3496        119
  22.3682        111
  22.3868         84
  22.4053         88
  22.4239         88
  22.4425        100
  22.4611        101
  22.4796         70
  22.4982        103
  22.5168        109
  22.5354        113
  22.5539         88
  22.5725         94
  22.5911        106
  22.6097        120
  22.6282         90
  22.6468        106
  22.6654         85
  22.6840        112
  22.7025        100
  22.7211        100
  22.7397         95
  22.7583        108
  22.7768         95
  22.7954        105
  22.8140        120
  22.8326         94
  22.8512         97
  22.8697        105
  22.8883         85
  22.9069        103
  22.9255        102
  22.9440         94
  22.9626        102
  22.9812         93
  22.9998         90
  23.0183        110
  23.0369         89
  23.0555         87
  23.0741        115
  23.0926         75
  23.1112        101
  23.1298        109
  23.1484        102
  23.1669        100
  23.1855        117
  23.2041         98
  23.2227        101
  23.2412         91
  23.2598        112
  23.2784        100
  23.2970         94
  23.3155         97
  23.3341         92
  23.3527        111
  23.3713         99
  23.3898         86
  23.4084        106
  23.4270        100
  23.4456         95
  23.4641         95
  23.4827         95
  23.5013         85
  23.5199         91
  23.5384         99
  23.5570         97
  23.5756        100
  23.5942         83
  23.6128        103
  23.6313        106
  23.6499        105
  23.6685        101
  23.6871         94
  23.7056        108
  23.7242        104
  23.7428         89
  23.7614        124
  23.7799        120
  23.7985        113
  23.8171        117
  23.8357         94
  23.8542         92
  23.8728         96
  23.8914         86
  23.9100        106
  23.9285         85
  23.9471        102
  23.9657        102
  23.9843         82
  24.0028        109
  24.0214        106
  24.0400        115
  24.0586        111
  24.0771        107
  24.0957        102
  24.1143         88
  24.1329         93
  24.1514         85
  24.1700         95
  24.1886         99
  24.2072         86
  24.2257        116
  24.2443        105
  24.2629        128
  24.2815        120
  24.3000        105
  24.3186        114
  24.3372        130
  24.3558        119
  24.3744        104
  24.3929        102
  24.4115        103
  24.4301        113
  24.4487         97
  24.4672         95
  24.4858        100
  24.5044         92
  24.5230         94
  24.5415        109
  24.5601        102
  24.5787        124
  24.5973         97
  24.6158        104
  24.6344         97
  24.6530         96
  24.6716         86
  24.6901        103
  24.7087        119
  24.7273         93
  24.7459         94
  24.7644         94
  24.7830         97
  24.8016        100
  24.8202        100
  24.8387         90
  24.8573         95
  24.8759         97
  24.8945         97
  24.9130        120
  24.9316        105
  24.9502         97
  24.9688        107
  24.9873         99
  25.0059        103
  25.0245         91
  25.0431         95
  25.0616         89
  25.0802         85
  25.0988        103
  25.1174        105
  25.1360        100
  25.1545         88
  25.1731         99
  25.1917         94
  25.2103        102
  25.2288         96
  25.2474        105
  25.2660         86
  25.2846        111
  25.3031         95
  25.3217         99
  25.3403         83
  25.3589         95
  25.3774         94
  25.3960         99
  25.4146         96
  25.4332         98
  25.4517         98
  25.4703        100
  25.4889         84
  25.5075        111
  25.5260         69
  25.5446         97
  25.5632         92
  25.5818         93
  25.6003         86
  25.6189        112
  25.6375         85
  25.6561         89
  25.6746         93
  25.6932        109
  25.7118         91
  25.7304         85
  25.7489         91
  25.7675        104
  25.7861        110
  25.8047         91
  25.8232        118
  25.8418         99
  25.8604         84
  25.8790        107
  25.8976         88
  25.9161         86
  25.9347        108
  25.9533         93
  25.9719        100
  25.9904        112
  26.0090         85
  26.0276         91
  26.0462         87
  26.0647         96
  26.0833         98
  26.1019        103
  26.1205         93
  26.1390        121
  26.1576        101
  26.1762        114
  26.1948        111
  26.2133        103
  26.2319         95
  26.2505         95
  26.2691         85
  26.2876         80
  26.3062         81
  26.3248         86
  26.3434         86
  26.3619         94
  26.3805        101
  26.3991         97
  26.4177         88
  26.4362         87
  26.4548        101
  26.4734         91
  26.4920         81
  26.5105         88
  26.5291         99
  26.5477        112
  26.5663        101
  26.5848        107
  26.6034         84
  26.6220         85
  26.6406         76
  26.6591         90
  26.6777         85
  26.6963         89
  26.7149        106
  26.7335         99
  26.7520         99
  26.7706         79
  26.7892        108
  26.8078        107
  26.8263         62
  26.8449         97
  26.8635         92
  26.8821         86
  26.9006         96
  26.9192         97
  26.9378         87
  26.9564        107
  26.9749         95
  26.9935        110
  27.0121         75
  27.0307        113
  27.0492         84
  27.0678        116
  27.0864         87
  27.1050         86
  27.1235         90
  27.1421        104
  27.1607        106
  27.1793        108
  27.1978        121
  27.2164        118
  27.2350        121
  27.2536        109
  27.2721        121
  27.2907        134
  27.3093        114
  27.3279         91
  27.3464         90
  27.3650         99
  27.3836         79
  27.4022        108
  27.4207         88
  27.4393        105
  27.4579         82
  27.4765         97
  27.4951         99
  27.5136         89
  27.5322         89
  27.5508        100
  27.5694         82
  27.5879         87
  27.6065         84
  27.6251         88
  27.6437         87
  27.6622         91
  27.6808         75
  27.6994         74
  27.7180         80
  27.7365         78
  27.7551         74
  27.7737         84
  27.7923         77
  27.8108         99
  27.8294         86
  27.8480         88
  27.8666         93
  27.8851         83
  27.9037         91
  27.9223        109
  27.9409         98
  27.9594         99
  27.9780         93
  27.9966        108
  28.0152         97
  28.0337         95
  28.0523         74
  28.0709         87
  28.0895        100
  28.1080         91
  28.1266         69
  28.1452         77
  28.1638         82
  28.1823         73
  28.2009         96
  28.2195         83
  28.2381         79
  28.2567         91
  28.2752         86
  28.2938         89
  28.3124         87
  28.3310        110
  28.3495         73
  28.3681         87
  28.3867         82
  28.4053         73
  28.4238         80
  28.4424         88
  28.4610         73
  28.4796         86
  28.4981        108
  28.5167         67
  28.5353         70
  28.5539         76
  28.5724         82
  28.5910         79
  28.6096         72
  28.6282         67
  28.6467         81
  28.6653         81
  28.6839         94
  28.7025         97
  28.7210         91
  28.7396         62
  28.7582         69
  28.7768         78
  28.7953         82
  28.8139         73
  28.8325         65
  28.8511         86
  28.8696         92
  28.8882         78
  28.9068         66
  28.9254         91
  28.9439         70
  28.9625         81
  28.9811         70
  28.9997         89
  29.0183         94
  29.0368         94
  29.0554         76
  29.0740         66
  29.0926        100
  29.1111         80
  29.1297         76
  29.1483         74
  29.1669         70
  29.1854         84
  29.2040         83
  29.2226         71
  29.2412         78
  29.2597         66
  29.2783        100
  29.2969         87
  29.3155         78
  29.3340         77
  29.3526         82
  29.3712         72
  29.3898         79
  29.4083         72
  29.4269         72
  29.4455         75
  29.4641         70
  29.4826         72
  29.5012         68
  29.5198         77
  29.5384         77
  29.5569         83
  29.5755         80
  29.5941         74
  29.6127         98
  29.6312         92
  29.6498         73
  29.6684         68
  29.6870         76
  29.7055         84
  29.7241         79
  29.7427         71
  29.7613         84
  29.7799         83
  29.7984         78
  29.8170         86
  29.8356         71
  29.8542         81
  29.8727         94
  29.8913         77
  29.9099         79
  29.9285         64
  29.9470         66
  29.9656         75
  29.9842         82
  30.0028         63
  30.0213         66
  30.0399         73
  30.0585         79
  30.0771         95
  30.0956         75
  30.1142         83
  30.1328         89
  30.1514         70
  30.1699         75
  30.1885         96
  30.2071         77
  30.2257         66
  30.2442         72
  30.2628         75
  30.2814         87
  30.3000         94
  30.3185         90
  30.3371         88
  30.3557        122
  30.3743        157
  30.3928        165
  30.4114        142
  30.4300        109
  30.4486        129
  30.4671        122
  30.4857         98
  30.5043         82
  30.5229         87
  30.5415         98
  30.5600         81
  30.5786         57
  30.5972         77
  30.6158         83
  30.6343         82
  30.6529         80
  30.6715         69
  30.6901         66
  30.7086         74
  30.7272         75
  30.7458         74
  30.7644         87
  30.7829         80
  30.8015         71
  30.8201         70
  30.8387         65
  30.8572         77
  30.8758         80
  30.8944         70
  30.9130         83
  30.9315         74
  30.9501         67
  30.9687         58
  30.9873         85
  31.0058         85
  31.0244         68
  31.0430         65
  31.0616         67
  31.0801         86
  31.0987         86
  31.1173         82
  31.1359         62
  31.1544         86
  31.1730         68
  31.1916         66
  31.2102         71
  31.2287         61
  31.2473         62
  31.2659         65
  31.2845         73
  31.3030         76
  31.3216         58
  31.3402         77
  31.3588         69
  31.3774         62
  31.3959         74
  31.4145         66
  31.4331         63
  31.4517         73
  31.4702         82
  31.4888         77
  31.5074         75
  31.5260         52
  31.5445         76
  31.5631         75
  31.5817         69
  31.6003         68
  31.6188         69
  31.6374         72
  31.6560         72
  31.6746         75
  31.6931         64
  31.7117         64
  31.7303         57
  31.7489         72
  31.7674         56
  31.7860         55
  31.8046         56
  31.8232         55
  31.8417         65
  31.8603         72
  31.8789         72
  31.8975         63
  31.9160         68
  31.9346         72
  31.9532         60
  31.9718         48
  31.9903         65
  32.0089         64
  32.0275         62
  32.0461         73
  32.0646         63
  32.0832         62
  32.1018         67
  32.1204         58
  32.1390         58
  32.1575         79
  32.1761         65
  32.1947         63
  32.2133         67
  32.2318         70
  32.2504         66
  32.2690         49
  32.2876         53
  32.3061         69
  32.3247         66
  32.3433         66
  32.3619         61
  32.3804         79
  32.3990         62
  32.4176         83
  32.4362         69
  32.4547         86
  32.4733         73
  32.4919         63
  32.5105         74
  32.5290         72
  32.5476         61
  32.5662         74
  32.5848         71
  32.6033         70
  32.6219         71
  32.6405         79
  32.6591         67
  32.6776         62
  32.6962         69
  32.7148         57
  32.7334         61
  32.7519         67
  32.7705         71
  32.7891         55
  32.8077         70
  32.8262         59
  32.8448         56
  32.8634         64
  32.8820         62
  32.9006         66
  32.9191         65
  32.9377         64
  32.9563         76
  32.9749         93
  32.9934         68
  33.0120         64
  33.0306         55
  33.0492         59
  33.0677         55
  33.0863         75
  33.1049         63
  33.1235         66
  33.1420         57
  33.1606         48
  33.1792         89
  33.1978         66
  33.2163         56
  33.2349         49
  33.2535         56
  33.2721         59
  33.2906         58
  33.3092         64
  33.3278         63
  33.3464         57
  33.3649         54
  33.3835         46
  33.4021         52
  33.4207         52
  33.4392         52
  33.4578         59
  33.4764         63
  33.4950         40
  33.5135         67
  33.5321         59
  33.5507         68
  33.5693         71
  33.5878         81
  33.6064         58
  33.6250         71
  33.6436         58
  33.6622         65
  33.6807         59
  33.6993         71
  33.7179         60
  33.7365         57
  33.7550         47
  33.7736         53
  33.7922         67
  33.8108         55
  33.8293         48
  33.8479         58
  33.8665         60
  33.8851         46
  33.9036         56
  33.9222         65
  33.9408         50
  33.9594         45
  33.9779         56
  33.9965         58
  34.0151         62
  34.0337         54
  34.0522         47
  34.0708         63
  34.0894         59
  34.1080         68
  34.1265         56
  34.1451         56
  34.1637         57
  34.1823         52
  34.2008         54
  34.2194         59
  34.2380         45
  34.2566         56
  34.2751         78
  34.2937         54
  34.3123         61
  34.3309         46
  34.3494         53
  34.3680         65
  34.3866         63
  34.4052         42
  34.4238         47
  34.4423         63
  34.4609         54
  34.4795         49
  34.4981         69
  34.5166         49
  34.5352         76
  34.5538         60
  34.5724         71
  34.5909         58
  34.6095         68
  34.6281         59
  34.6467         69
  34.6652         68
  34.6838         66
  34.7024         72
  34.7210         69
  34.7395         79
  34.7581         88
  34.7767         85
  34.7953         87
  34.8138         63
  34.8324         82
  34.8510         73
  34.8696         68
  34.8881         59
  34.9067         60
  34.9253         44
  34.9439         53
  34.9624         49
  34.9810         55
  34.9996         53
  35.0182         45
  35.0367         48
  35.0553         53
  35.0739         58
  35.0925         57
  35.1110         47
  35.1296         60
  35.1482         60
  35.1668         56
  35.1854         63
  35.2039         51
  35.2225         51
  35.2411         46
  35.2597         49
  35.2782         41
  35.2968         53
  35.3154         57
  35.3340         49
  35.3525         44
  35.3711         51
  35.3897         47
  35.4083         58
  35.4268         51
  35.4454         44
  35.4640         50
  35.4826         62
  35.5011         65
  35.5197         57
  35.5383         37
  35.5569         50
  35.5754         52
  35.5940         52
  35.6126         60
  35.6312         48
  35.6497         58
  35.6683         39
  35.6869         51
  35.7055         57
  35.7240         41
  35.7426         42
  35.7612         50
  35.7798         48
  35.7983         40
  35.8169         58
  35.8355         55
  35.8541         56
  35.8726         46
  35.8912         46
  35.9098         43
  35.9284         58
  35.9469         64
  35.9655         42
  35.9841         41
  36.0027         36
  36.0213         47
  36.0398         55
  36.0584         41
  36.0770         53
  36.0956         40
  36.1141         53
  36.1327         63
  36.1513         41
  36.1699         44
  36.1884         49
  36.2070         27
  36.2256         52
  36.2442         38
  36.2627         46
  36.2813         48
  36.2999         43
  36.3185         43
  36.3370         43
  36.3556         34
  36.3742         50
  36.3928         46
  36.4113         45
  36.4299         56
  36.4485         50
  36.4671         45
  36.4856         44
  36.5042         44
  36.5228         40
  36.5414         50
  36.5599         49
  36.5785         50
  36.5971         39
  36.6157         50
  36.6342         48
  36.6528         40
  36.6714         46
  36.6900         41
  36.7085         41
  36.7271         47
  36.7457         58
  36.7643         54
  36.7829         41
  36.8014         47
  36.8200         44
  36.8386         41
  36.8572         56
  36.8757         45
  36.8943         53
  36.9129         48
  36.9315         43
  36.9500         50
  36.9686         44
  36.9872         46
  37.0058         44
  37.0243         39
  37.0429         38
  37.0615         30
  37.0801         36
  37.0986         45
  37.1172         38
  37.1358         38
  37.1544         43
  37.1729         53
  37.1915         48
  37.2101         36
  37.2287         52
  37.2472         43
  37.2658         45
  37.2844         47
  37.3030         56
  37.3215         53
  37.3401         39
  37.3587         42
  37.3773         45
  37.3958         51
  37.4144         68
  37.4330         74
  37.4516         89
  37.4701         62
  37.4887         55
  37.5073         52
  37.5259         56
  37.5445         61
  37.5630         63
  37.5816         48
  37.6002         49
  37.6188         53
  37.6373         41
  37.6559         51
  37.6745         44
  37.6931         47
  37.7116         38
  37.7302         51
  37.7488         45
  37.7674         48
  37.7859         40
  37.8045         46
  37.8231         42
  37.8417         46
  37.8602         45
  37.8788         39
  37.8974         37
  37.9160         43
  37.9345         50
  37.9531         47
  37.9717         44
  37.9903         42
  38.0088         30
  38.0274         46
  38.0460         37
  38.0646         56
  38.0831         41
  38.1017         43
  38.1203         42
  38.1389         42
  38.1574         49
  38.1760         29
  38.1946         40
  38.2132         38
  38.2317         30
  38.2503         40
  38.2689         43
  38.2875         49
  38.3061         51
  38.3246         32
  38.3432         39
  38.3618         50
  38.3804         46
  38.3989         42
  38.4175         40
  38.4361         34
  38.4547         45
  38.4732         42
  38.4918         39
  38.5104         48
  38.5290         49
  38.5475         42
  38.5661         41
  38.5847         40
  38.6033         45
  38.6218         42
  38.6404         29
  38.6590         50
  38.6776         37
  38.6961         53
  38.7147         38
  38.7333         45
  38.7519         38
  38.7704         39
  38.7890         44
  38.8076         42
  38.8262         48
  38.8447         45
  38.8633         42
  38.8819         32
  38.9005         43
  38.9190         36
  38.9376         42
  38.9562         44
  38.9748         41
  38.9933         35
  39.0119         35
  39.0305         52
  39.0491         47
  39.0677         30
  39.0862         44
  39.1048         46
  39.1234         48
  39.1420         37
  39.1605         33
  39.1791         48
  39.1977         40
  39.2163         39
  39.2348         36
  39.2534         39
  39.2720         56
  39.2906         43
  39.3091         50
  39.3277         49
  39.3463         30
  39.3649         37
  39.3834         42
  39.4020         33
  39.4206         45
  39.4392         37
  39.4577         57
  39.4763         33
  39.4949         30
  39.5135         45
  39.5320         33
  39.5506         34
  39.5692         44
  39.5878         42
  39.6063         39
  39.6249         35
  39.6435         38
  39.6621         41
  39.6806         36
  39.6992         40
  39.7178         32
  39.7364         44
  39.7549         39
  39.7735         44
  39.7921         32
  39.8107         49
  39.8293         44
  39.8478         25
  39.8664         52
  39.8850         37
  39.9036         45
  39.9221         49
  39.9407         29
  39.9593         43
  39.9779         39
  39.9964         45
  40.0150         41
  40.0336         40
  40.0522         34
  40.0707         46
  40.0893         40
  40.1079         45
  40.1265         37
  40.1450         29
  40.1636         40
  40.1822         46
  40.2008         34
  40.2193         37
  40.2379         33
  40.2565         47
  40.2751         28
  40.2936         32
  40.3122         47
  40.3308         36
  40.3494         36
  40.3679         39
  40.3865         41
  40.4051         41
  40.4237         37
  40.4422         38
  40.4608         24
  40.4794         38
  40.4980         41
  40.5165         45
  40.5351         43
  40.5537         41
  40.5723         39
  40.5908         33
  40.6094         44
  40.6280         31
  40.6466         32
  40.6652         31
  40.6837         40
  40.7023         35
  40.7209         28
  40.7395         33
  40.7580         37
  40.7766         39
  40.7952         37
  40.8138         38
  40.8323         39
  40.8509         33
  40.8695         29
  40.8881         40
  40.9066         50
  40.9252         39
  40.9438         47
  40.9624         34
  40.9809         55
  40.9995         46
  41.0181         39
  41.0367         38
  41.0552         52
  41.0738         33
  41.0924         36
  41.1110         50
  41.1295         32
  41.1481         36
  41.1667         41
  41.1853         51
  41.2038         34
  41.2224         33
  41.2410         22
  41.2596         36
  41.2781         37
  41.2967         40
  41.3153         48
  41.3339         37
  41.3524         28
  41.3710         39
  41.3896         39
  41.4082         51
  41.4268         42
  41.4453         38
  41.4639         35
  41.4825         32
  41.5011         38
  41.5196         47
  41.5382         53
  41.5568         49
  41.5754         34
  41.5939         34
  41.6125         54
  41.6311         41
  41.6497         28
  41.6682         40
  41.6868         30
  41.7054         39
  41.7240         35
  41.7425         40
  41.7611         40
  41.7797         35
  41.7983         40
  41.8168         41
  41.8354         30
  41.8540         24
  41.8726         31
  41.8911         37
  41.9097         28
  41.9283         32
  41.9469         38
  41.9654         33
  41.9840         44
  42.0026         36
  42.0212         41
  42.0397         29
  42.0583         31
  42.0769         39
  42.0955         33
  42.1140         33
  42.1326         35
  42.1512         38
  42.1698         49
  42.1884         34
  42.2069         46
  42.2255         34
  42.2441         34
  42.2627         39
  42.2812         45
  42.2998         37
  42.3184         34
  42.3370         46
  42.3555         42
  42.3741         39
  42.3927         33
  42.4113         39
  42.4298         28
  42.4484         27
  42.4670         35
  42.4856         34
  42.5041         36
  42.5227         31
  42.5413         40
  42.5599         37
  42.5784         48
  42.5970         30
  42.6156         33
  42.6342         52
  42.6527         35
  42.6713         31
  42.6899         24
  42.7085         36
  42.7270         31
  42.7456         43
  42.7642         30
  42.7828         37
  42.8013         39
  42.8199         33
  42.8385         40
  42.8571         34
  42.8756         32
  42.8942         35
  42.9128         35
  42.9314         37
  42.9500         28
  42.9685         40
  42.9871         24
  43.0057         38
  43.0243         35
  43.0428         32
  43.0614         34
  43.0800         35
  43.0986         40
  43.1171         35
  43.1357         33
  43.1543         41
  43.1729         37
  43.1914         44
  43.2100         62
  43.2286         55
  43.2472         43
  43.2657         45
  43.2843         43
  43.3029         42
  43.3215         43
  43.3400         48
  43.3586         43
  43.3772         39
  43.3958         35
  43.4143         40
  43.4329         54
  43.4515         41
  43.4701         48
  43.4886         48
  43.5072         61
  43.5258         61
  43.5444         50
  43.5629         45
  43.5815         37
  43.6001         50
  43.6187         53
  43.6372         40
  43.6558         47
  43.6744         43
  43.6930         30
  43.7116         33
  43.7301         47
  43.7487         28
  43.7673         32
  43.7859         49
  43.8044         27
  43.8230         29
  43.8416         27
  43.8602         32
  43.8787         39
  43.8973         36
  43.9159         29
  43.9345         37
  43.9530         40
  43.9716         35
  43.9902         42
  44.0088         52
  44.0273         36
  44.0459         37
  44.0645         37
  44.0831         38
  44.1016         32
  44.1202         49
  44.1388         38
  44.1574         31
  44.1759         35
  44.1945         40
  44.2131         43
  44.2317         26
  44.2502         40
  44.2688         32
  44.2874         35
  44.3060         27
  44.3245         35
  44.3431         36
  44.3617         39
  44.3803         35
  44.3988         37
  44.4174         33
  44.4360         24
  44.4546         38
  44.4732         42
  44.4917         38
  44.5103         43
  44.5289         35
  44.5475         36
  44.5660         37
  44.5846         43
  44.6032         30
  44.6218         34
  44.6403         47
  44.6589         34
  44.6775         26
  44.6961         51
  44.7146         43
  44.7332         41
  44.7518         35
  44.7704         31
  44.7889         34
  44.8075         36
  44.8261         38
  44.8447         32
  44.8632         34
  44.8818         36
  44.9004         36
  44.9190         34
  44.9375         29
  44.9561         38
  44.9747         25
  44.9933         30
  45.0118         39
  45.0304         32
  45.0490         34
  45.0676         32
  45.0861         32
  45.1047         33
  45.1233         33
  45.1419         29
  45.1604         32
  45.1790         35
  45.1976         19
  45.2162         41
  45.2347         27
  45.2533         30
  45.2719         39
  45.2905         36
  45.3091         36
  45.3276         30
  45.3462         30
  45.3648         26
  45.3834         28
  45.4019         30
  45.4205         34
  45.4391         30
  45.4577         41
  45.4762         34
  45.4948         39
  45.5134         40
  45.5320         32
  45.5505         39
  45.5691         35
  45.5877         26
  45.6063         30
  45.6248         32
  45.6434         36
  45.6620         36
  45.6806         34
  45.6991         37
  45.7177         44
  45.7363         29
  45.7549         27
  45.7734         26
  45.7920         29
  45.8106         39
  45.8292         37
  45.8477         45
  45.8663         30
  45.8849         33
  45.9035         41
  45.9220         32
  45.9406         33
  45.9592         36
  45.9778         31
  45.9963         32
  46.0149         33
  46.0335         37
  46.0521         40
  46.0707         30
  46.0892         35
  46.1078         28
  46.1264         24
  46.1450         31
  46.1635         35
  46.1821         33
  46.2007         35
  46.2193         35
  46.2378         42
  46.2564         36
  46.2750         32
  46.2936         27
  46.3121         26
  46.3307         35
  46.3493         41
  46.3679         40
  46.3864         40
  46.4050         25
  46.4236         27
  46.4422         43
  46.4607         35
  46.4793         30
  46.4979         33
  46.5165         37
  46.5350         35
  46.5536         29
  46.5722         39
  46.5908         35
  46.6093         27
  46.6279         41
  46.6465         35
  46.6651         31
  46.6836         29
  46.7022         33
  46.7208         28
  46.7394         32
  46.7579         30
  46.7765         27
  46.7951         29
  46.8137         39
  46.8323         42
  46.8508         31
  46.8694         31
  46.8880         22
  46.9066         28
  46.9251         35
  46.9437         21
  46.9623         28
  46.9809         22
  46.9994         46
  47.0180         38
  47.0366         32
  47.0552         25
  47.0737         34
  47.0923         33
  47.1109         27
  47.1295         28
  47.1480         26
  47.1666         44
  47.1852         44
  47.2038         33
  47.2223         38
  47.2409         31
  47.2595         31
  47.2781         38
  47.2966         30
  47.3152         35
  47.3338         21
  47.3524         31
  47.3709         31
  47.3895         40
  47.4081         28
  47.4267         28
  47.4452         33
  47.4638         30
  47.4824         29
  47.5010         27
  47.5195         23
  47.5381         35
  47.5567         37
  47.5753         29
  47.5939         26
  47.6124         30
  47.6310         32
  47.6496         30
  47.6682         23
  47.6867         22
  47.7053         37
  47.7239         39
  47.7425         33
  47.7610         28
  47.7796         28
  47.7982         30
  47.8168         31
  47.8353         25
  47.8539         30
  47.8725         42
  47.8911         46
  47.9096         29
  47.9282         25
  47.9468         22
  47.9654         29
  47.9839         24
  48.0025         31
  48.0211         21
  48.0397         31
  48.0582         24
  48.0768         29
  48.0954         45
  48.1140         31
  48.1325         40
  48.1511         34
  48.1697         33
  48.1883         24
  48.2068         24
  48.2254         37
  48.2440         32
  48.2626         22
  48.2811         34
  48.2997         32
  48.3183         25
  48.3369         34
  48.3555         26
  48.3740         28
  48.3926         30
  48.4112         22
  48.4298         25
  48.4483         41
  48.4669         39
  48.4855         39
  48.5041         36
  48.5226         44
  48.5412         34
  48.5598         28
  48.5784         35
  48.5969         29
  48.6155         21
  48.6341         24
  48.6527         30
  48.6712         25
  48.6898         30
  48.7084         32
  48.7270         30
  48.7455         33
  48.7641         31
  48.7827         34
  48.8013         37
  48.8198         26
  48.8384         27
  48.8570         40
  48.8756         38
  48.8941         40
  48.9127         49
  48.9313         48
  48.9499         43
  48.9684         49
  48.9870         45
  49.0056         39
  49.0242         34
  49.0427         37
  49.0613         48
  49.0799         37
  49.0985         54
  49.1171         42
  49.1356         30
  49.1542         32
  49.1728         32
  49.1914         39
  49.2099         38
  49.2285         33
  49.2471         29
  49.2657         31
  49.2842         25
  49.3028         27
  49.3214         33
  49.3400         35
  49.3585         43
  49.3771         29
  49.3957         30
  49.4143         34
  49.4328         31
  49.4514         30
  49.4700         34
  49.4886         38
  49.5071         24
  49.5257         26
  49.5443         30
  49.5629         31
  49.5814         30
  49.6000         33
  49.6186         24
  49.6372         33
  49.6557         26
  49.6743         26
  49.6929         32
  49.7115         34
  49.7300         27
  49.7486         34
  49.7672         31
  49.7858         24
  49.8043         33
  49.8229         16
  49.8415         24
  49.8601         40
  49.8786         30
  49.8972         37
  49.9158         29
  49.9344         36
  49.9530         22
  49.9715         38
  49.9901         27
  50.0087         26
  50.0273         25
  50.0458         26
  50.0644         35
  50.0830         27
  50.1016         32
  50.1201         25
  50.1387         31
  50.1573         38
  50.1759         32
  50.1944         32
  50.2130         35
  50.2316         19
  50.2502         30
  50.2687         31
  50.2873         33
  50.3059         26
  50.3245         49
  50.3430         35
  50.3616         32
  50.3802         33
  50.3988         29
  50.4173         43
  50.4359         26
  50.4545         30
  50.4731         31
  50.4916         31
  50.5102         27
  50.5288         27
  50.5474         29
  50.5659         27
  50.5845         30
  50.6031         33
  50.6217         27
  50.6402         26
  50.6588         22
  50.6774         24
  50.6960         45
  50.7146         33
  50.7331         34
  50.7517         36
  50.7703         33
  50.7889         27
  50.8074         33
  50.8260         28
  50.8446         30
  50.8632         27
  50.8817         36
  50.9003         28
  50.9189         34
  50.9375         25
  50.9560         32
  50.9746         26
  50.9932         34
  51.0118         29
  51.0303         23
  51.0489         31
  51.0675         26
  51.0861         24
  51.1046         21
  51.1232         32
  51.1418         17
  51.1604         33
  51.1789         34
  51.1975         28
  51.2161         32
  51.2347         27
  51.2532         30
  51.2718         41
  51.2904         23
  51.3090         42
  51.3275         39
  51.3461         33
  51.3647         38
  51.3833         37
  51.4018         38
  51.4204         21
  51.4390         28
  51.4576         35
  51.4762         29
  51.4947         35
  51.5133         30
  51.5319         27
  51.5505         40
  51.5690         29
  51.5876         31
  51.6062         31
  51.6248         31
  51.6433         30
  51.6619         32
  51.6805         32
  51.6991         34
  51.7176         35
  51.7362         23
  51.7548         20
  51.7734         28
  51.7919         27
  51.8105         23
  51.8291         31
  51.8477         24
  51.8662         40
  51.8848         39
  51.9034         30
  51.9220         35
  51.9405         42
  51.9591         26
  51.9777         32
  51.9963         37
  52.0148         32
  52.0334         35
  52.0520         23
  52.0706         26
  52.0891         37
  52.1077         35
  52.1263         36
  52.1449         33
  52.1634         30
  52.1820         25
  52.2006         31
  52.2192         22
  52.2378         28
  52.2563         35
  52.2749         25
  52.2935         24
  52.3121         34
  52.3306         24
  52.3492         34
  52.3678         34
  52.3864         29
  52.4049         25
  52.4235         31
  52.4421         25
  52.4607         23
  52.4792         31
  52.4978         32
  52.5164         31
  52.5350         39
  52.5535         26
  52.5721         32
  52.5907         27
  52.6093         32
  52.6278         36
  52.6464         36
  52.6650         32
  52.6836         31
  52.7021         28
  52.7207         33
  52.7393         30
  52.7579         25
  52.7764         26
  52.7950         22
  52.8136         26
  52.8322         32
  52.8507         28
  52.8693         26
  52.8879         23
  52.9065         29
  52.9250         27
  52.9436         34
  52.9622         22
  52.9808         42
  52.9994         25
  53.0179         35
  53.0365         31
  53.0551         27
  53.0737         20
  53.0922         44
  53.1108         29
  53.1294         29
  53.1480         31
  53.1665         34
  53.1851         31
  53.2037         28
  53.2223         39
  53.2408         24
  53.2594         37
  53.2780         27
  53.2966         29
  53.3151         18
  53.3337         26
  53.3523         19
  53.3709         30
  53.3894         22
  53.4080         25
  53.4266         35
  53.4452         27
  53.4637         21
  53.4823         36
  53.5009         26
  53.5195         29
  53.5380         21
  53.5566         32
  53.5752         26
  53.5938         22
  53.6123         24
  53.6309         28
  53.6495         23
  53.6681         28
  53.6866         23
  53.7052         22
  53.7238         32
  53.7424         25
  53.7610         40
  53.7795         41
  53.7981         23
  53.8167         16
  53.8353         36
  53.8538         28
  53.8724         33
  53.8910         23
  53.9096         26
  53.9281         23
  53.9467         34
  53.9653         41
  53.9839         39
  54.0024         44
  54.0210         28
  54.0396         36
  54.0582         35
  54.0767         24
  54.0953         41
  54.1139         28
  54.1325         29
  54.1510         45
  54.1696         33
  54.1882         32
  54.2068         36
  54.2253         33
  54.2439         23
  54.2625         43
  54.2811         41
  54.2996         35
  54.3182         25
  54.3368         34
  54.3554         25
  54.3739         25
  54.3925         28
  54.4111         27
  54.4297         23
  54.4482         42
  54.4668         24
  54.4854         32
  54.5040         30
  54.5225         25
  54.5411         35
  54.5597         27
  54.5783         35
  54.5969         24
  54.6154         29
  54.6340         22
  54.6526         29
  54.6712         22
  54.6897         34
  54.7083         24
  54.7269         33
  54.7455         30
  54.7640         18
  54.7826         24
  54.8012         32
  54.8198         33
  54.8383         33
  54.8569         23
  54.8755         33
  54.8941         14
  54.9126         29
  54.9312         28
  54.9498         23
  54.9684         30
  54.9869         26
  55.0055         28
  55.0241         21
  55.0427         24
  55.0612         35
  55.0798         29
  55.0984         26
  55.1170         14
  55.1355         28
  55.1541         29
  55.1727         22
  55.1913         27
  55.2098         36
  55.2284         24
  55.2470         34
  55.2656         22
  55.2841         17
  55.3027         33
  55.3213         31
  55.3399         32
  55.3585         25
  55.3770         31
  55.3956         30
  55.4142         27
  55.4328         28
  55.4513         27
  55.4699         33
  55.4885         27
  55.5071         28
  55.5256         34
  55.5442         29
  55.5628         33
  55.5814         25
  55.5999         32
  55.6185         33
  55.6371         22
  55.6557         23
  55.6742         35
  55.6928         25
  55.7114         23
  55.7300         30
  55.7485         27
  55.7671         21
  55.7857         24
  55.8043         28
  55.8228         22
  55.8414         36
  55.8600         25
  55.8786         31
  55.8971         28
  55.9157         23
  55.9343         30
  55.9529         29
  55.9714         29
  55.9900         19
  56.0086         26
  56.0272         23
  56.0457         35
  56.0643         25
  56.0829         21
  56.1015         31
  56.1201         25
  56.1386         31
  56.1572         30
  56.1758         39
  56.1944         34
  56.2129         40
  56.2315         38
  56.2501         28
  56.2687         35
  56.2872         35
  56.3058         36
  56.3244         40
  56.3430         18
  56.3615         35
  56.3801         38
  56.3987         31
  56.4173         19
  56.4358         44
  56.4544         34
  56.4730         31
  56.4916         35
  56.5101         35
  56.5287         29
  56.5473         23
  56.5659         31
  56.5844         38
  56.6030         23
  56.6216         38
  56.6402         22
  56.6587         25
  56.6773         34
  56.6959         40
  56.7145         28
  56.7330         24
  56.7516         29
  56.7702         30
  56.7888         17
  56.8073         31
  56.8259         31
  56.8445         29
  56.8631         29
  56.8817         33
  56.9002         23
  56.9188         15
  56.9374         34
  56.9560         24
  56.9745         22
  56.9931         32
  57.0117         34
  57.0303         33
  57.0488         31
  57.0674         31
  57.0860         18
  57.1046         21
  57.1231         29
  57.1417         24
  57.1603         28
  57.1789         34
  57.1974         27
  57.2160         30
  57.2346         25
  57.2532         32
  57.2717         37
  57.2903         26
  57.3089         36
  57.3275         23
  57.3460         23
  57.3646         24
  57.3832         24
  57.4018         19
  57.4203         23
  57.4389         35
  57.4575         36
  57.4761         22
  57.4946         27
  57.5132         23
  57.5318         22
  57.5504         37
  57.5689         27
  57.5875         26
  57.6061         20
  57.6247         23
  57.6433         28
  57.6618         21
  57.6804         37
  57.6990         28
  57.7176         30
  57.7361         26
  57.7547         35
  57.7733         29
  57.7919         34
  57.8104         34
  57.8290         33
  57.8476         26
  57.8662         22
  57.8847         29
  57.9033         19
  57.9219         34
  57.9405         29
  57.9590         29
  57.9776         27
  57.9962         35
  58.0148         26
  58.0333         29
  58.0519         23
  58.0705         27
  58.0891         24
  58.1076         25
  58.1262         21
  58.1448         18
  58.1634         24
  58.1819         16
  58.2005         26
  58.2191         31
  58.2377         22
  58.2562         26
  58.2748         28
  58.2934         27
  58.3120         33
  58.3305         36
  58.3491         32
  58.3677         41
  58.3863         27
  58.4049         38
  58.4234         25
  58.4420         16
  58.4606         23
  58.4792         16
  58.4977         21
  58.5163         26
  58.5349         23
  58.5535         26
  58.5720         24
  58.5906         30
  58.6092         29
  58.6278         24
  58.6463         29
  58.6649         25
  58.6835         22
  58.7021         22
  58.7206         27
  58.7392         29
  58.7578         27
  58.7764         27
  58.7949         25
  58.8135         43
  58.8321         25
  58.8507         31
  58.8692         30
  58.8878         32
  58.9064         22
  58.9250         34
  58.9435         21
  58.9621         32
  58.9807         22
  58.9993         25
  59.0178         31
  59.0364         19
  59.0550         26
  59.0736         25
  59.0921         29
  59.1107         29
  59.1293         22
  59.1479         23
  59.1664         27
  59.1850         27
  59.2036         25
  59.2222         23
  59.2408         25
  59.2593         22
  59.2779         35
  59.2965         21
  59.3151         40
  59.3336         23
  59.3522         27
  59.3708         32
  59.3894         21
  59.4079         17
  59.4265         39
  59.4451         32
  59.4637         30
  59.4822         28
  59.5008         29
  59.5194         29
  59.5380         27
  59.5565         24
  59.5751         32
  59.5937         33
  59.6123         31
  59.6308         19
  59.6494         35
  59.6680         32
  59.6866         25
  59.7051         29
  59.7237         28
  59.7423         22
  59.7609         21
  59.7794         29
  59.7980         32
  59.8166         22
  59.8352         23
  59.8537         33
  59.8723         28
  59.8909         29
  59.9095         27
  59.9280         32
  59.9466         26
  59.9652         27
  59.9838         24
  60.0024         28
