; (content of file Y:\Sam\Apurva-07-20-2022\puck4\ML_20220718_14_SJD_0_LaB6-2min.raw)
_FILEVERSION = 3
_SAMPLE = ML_20220718_14_SJD_0_LaB6-2min
_+SAMPLE = 
_SITE = USA
_USER = Administrator
_GONIOMETER_CODE = 20
; Goniometer : D8 theta/2theta, stage : Unknown
_ATTACHMENTS_CODE = 0
_GONIOMETER_RADIUS = 200.5
_FIXED_DIVSLIT = 0.6
_FIXED_SAMPLESLIT = 0
_SOLLER_SLITS = 2
_FIXED_DETSLIT = 9.55
_MONOCHROMATOR = 0
; Incident beam monochromator : None
_SOLLER_SLITS_2 = N
_THIN_FILM = N
_BETA_FILTER = Y
_FIXED_ANTISLIT = 5.89
_ANALYZER_CODE = 0
; Received beam analyzer : None
_DATEMEASURED = "26-Jul-2022 09:51:52"
_WL_UNIT = A
_WL1 = 1.5406
_WL2 = 1.54439
_WL3 = 1.39222
_WLRATIO = 0.5
_ANODE = Cu
_V4_INF_CREATOR = XRDWizard
_V4_INF_CREATOR_VERSION = V2.9.0.22
_V4_INF_WIZARD_VERSION = V2.9.0.22
_V4_INF_WIZARD_ADDINS = V2.9.0.22
_V4_INF_WIZARD_DOCTYPE = XRD
_V4_INF_OSUSER = McQueenLab
_V4_INF_USER = Administrator
_V4_INF_SITE = USA
_V4_INF_SAMPLEID = ML_20220718_14_SJD_0_LaB6-2min

; Data for range 1
_DRIVE = COUPLED
_STEPTIME = 5.64
_STEPSIZE = 0.0185756
_STEPMODE = C
_START = 5
_THETA = 2.5
_2THETA = 5
_KHI = 0
_PHI = 0
_X = 0
_Y = 0
_Z = 0
_DETECTOR = 5
; Detector type : Unknown
_DETECTORSLIT = unkn
_AUX1 = 0
_AUX2 = 0
_AUX3 = 0
_TIMESTARTED = 15
_TEMP_RATE = -1
_TEMP_DELAY = -1
_KV = 40
_MA = 40
_RANGE_WL = 1.5406
_3DPLANE = 0
_V4_ADDITIONALDETECTOR = 257
_V4_PSD2THETA = 3.371
_V4_PSDCHANNEL1 = 0
_V4_PSDAPERTURE = 12.68
_V4_PSDTYPE = 5
_V4_PSDFIXED = 0
_V4_COUNTERS_MASK = 4096
_V4_DRIVES_MASK = 0
_V4_ENCODERS_MASK = 0
_2THETACOUNTS = 1
; 2THETA  PSD
   5.0000        130
   5.0186        134
   5.0372        141
   5.0557        136
   5.0743        125
   5.0929        119
   5.1115        128
   5.1300        127
   5.1486        131
   5.1672        126
   5.1858        119
   5.2043        111
   5.2229        124
   5.2415        105
   5.2601        127
   5.2786        105
   5.2972        127
   5.3158        103
   5.3344         95
   5.3529        128
   5.3715        130
   5.3901        108
   5.4087        118
   5.4272        112
   5.4458        120
   5.4644        133
   5.4830        102
   5.5015        123
   5.5201        110
   5.5387        127
   5.5573        118
   5.5758        124
   5.5944        118
   5.6130        111
   5.6316        106
   5.6501        117
   5.6687        112
   5.6873        112
   5.7059        103
   5.7244        116
   5.7430         92
   5.7616         90
   5.7802        103
   5.7988        117
   5.8173        118
   5.8359         85
   5.8545         91
   5.8731         95
   5.8916         75
   5.9102         98
   5.9288         97
   5.9474         77
   5.9659         97
   5.9845        109
   6.0031         98
   6.0217        100
   6.0402         99
   6.0588         87
   6.0774        107
   6.0960         85
   6.1145        111
   6.1331        107
   6.1517         97
   6.1703         76
   6.1888         98
   6.2074         88
   6.2260         99
   6.2446         93
   6.2631         83
   6.2817         94
   6.3003         96
   6.3189         88
   6.3374         85
   6.3560         95
   6.3746         90
   6.3932         81
   6.4117         93
   6.4303         83
   6.4489         95
   6.4675         95
   6.4860         78
   6.5046         88
   6.5232         79
   6.5418         85
   6.5604         86
   6.5789        105
   6.5975         80
   6.6161        101
   6.6347         79
   6.6532        104
   6.6718         98
   6.6904         91
   6.7090         57
   6.7275         73
   6.7461         85
   6.7647         85
   6.7833         79
   6.8018         98
   6.8204         81
   6.8390         81
   6.8576         90
   6.8761         62
   6.8947         76
   6.9133         70
   6.9319         78
   6.9504         74
   6.9690         75
   6.9876         78
   7.0062         91
   7.0247         76
   7.0433         86
   7.0619         68
   7.0805         90
   7.0990         86
   7.1176         81
   7.1362         95
   7.1548         66
   7.1733         88
   7.1919         82
   7.2105         85
   7.2291         69
   7.2476         66
   7.2662         92
   7.2848         83
   7.3034         84
   7.3220         88
   7.3405         91
   7.3591         68
   7.3777         87
   7.3963         88
   7.4148         83
   7.4334         73
   7.4520         71
   7.4706         72
   7.4891         79
   7.5077         88
   7.5263         97
   7.5449        100
   7.5634         82
   7.5820         90
   7.6006        103
   7.6192         95
   7.6377         94
   7.6563         78
   7.6749         74
   7.6935         73
   7.7120         76
   7.7306         88
   7.7492         90
   7.7678         85
   7.7863         97
   7.8049         81
   7.8235         76
   7.8421         79
   7.8606         94
   7.8792         85
   7.8978         80
   7.9164         81
   7.9349         90
   7.9535         79
   7.9721         81
   7.9907         97
   8.0092         90
   8.0278         86
   8.0464         90
   8.0650         87
   8.0835         89
   8.1021         97
   8.1207         91
   8.1393         82
   8.1579         78
   8.1764        102
   8.1950         83
   8.2136         80
   8.2322         91
   8.2507        107
   8.2693        100
   8.2879         95
   8.3065         85
   8.3250        105
   8.3436         88
   8.3622        104
   8.3808         88
   8.3993         97
   8.4179        104
   8.4365         84
   8.4551         93
   8.4736        116
   8.4922        103
   8.5108        106
   8.5294         90
   8.5479        121
   8.5665         93
   8.5851        103
   8.6037        114
   8.6222         99
   8.6408         92
   8.6594        110
   8.6780        108
   8.6965         90
   8.7151         93
   8.7337        112
   8.7523         95
   8.7708        106
   8.7894        112
   8.8080        100
   8.8266        100
   8.8451         82
   8.8637         99
   8.8823         98
   8.9009        101
   8.9195        108
   8.9380         83
   8.9566         94
   8.9752        101
   8.9938        113
   9.0123         92
   9.0309        103
   9.0495        105
   9.0681        100
   9.0866        118
   9.1052         94
   9.1238        112
   9.1424        100
   9.1609        102
   9.1795        116
   9.1981        118
   9.2167         98
   9.2352        110
   9.2538        102
   9.2724        125
   9.2910        104
   9.3095        122
   9.3281        125
   9.3467        122
   9.3653        101
   9.3838        115
   9.4024        120
   9.4210         97
   9.4396        102
   9.4581         98
   9.4767         99
   9.4953        123
   9.5139        105
   9.5324        114
   9.5510        106
   9.5696         92
   9.5882        110
   9.6067        119
   9.6253        126
   9.6439        110
   9.6625         95
   9.6811        126
   9.6996         92
   9.7182        113
   9.7368        122
   9.7554        121
   9.7739        109
   9.7925        130
   9.8111        116
   9.8297        105
   9.8482        124
   9.8668        121
   9.8854        111
   9.9040        110
   9.9225        125
   9.9411        128
   9.9597        109
   9.9783        115
   9.9968        142
  10.0154        110
  10.0340        133
  10.0526        119
  10.0711        135
  10.0897        110
  10.1083        110
  10.1269        128
  10.1454        124
  10.1640        130
  10.1826        111
  10.2012        131
  10.2197        113
  10.2383        109
  10.2569        108
  10.2755        115
  10.2940        116
  10.3126         98
  10.3312        118
  10.3498        114
  10.3683        117
  10.3869        112
  10.4055        101
  10.4241        147
  10.4427        113
  10.4612        124
  10.4798        141
  10.4984        113
  10.5170        123
  10.5355         94
  10.5541        112
  10.5727        109
  10.5913        116
  10.6098        117
  10.6284        114
  10.6470        139
  10.6656        127
  10.6841        121
  10.7027        128
  10.7213         95
  10.7399        109
  10.7584        126
  10.7770        123
  10.7956        109
  10.8142        118
  10.8327        121
  10.8513        104
  10.8699        107
  10.8885        130
  10.9070        129
  10.9256        124
  10.9442        105
  10.9628        126
  10.9813        131
  10.9999        128
  11.0185        130
  11.0371        101
  11.0556        121
  11.0742        112
  11.0928        110
  11.1114        114
  11.1299        119
  11.1485        119
  11.1671        113
  11.1857        119
  11.2043        120
  11.2228        105
  11.2414        104
  11.2600        115
  11.2786        123
  11.2971         95
  11.3157         99
  11.3343        123
  11.3529         90
  11.3714        118
  11.3900        115
  11.4086        118
  11.4272        123
  11.4457        116
  11.4643         99
  11.4829        115
  11.5015        109
  11.5200        123
  11.5386        112
  11.5572        104
  11.5758        113
  11.5943        111
  11.6129        119
  11.6315        134
  11.6501        108
  11.6686        123
  11.6872        124
  11.7058        123
  11.7244        115
  11.7429        111
  11.7615        110
  11.7801        132
  11.7987        113
  11.8172         89
  11.8358        114
  11.8544        120
  11.8730        118
  11.8915        105
  11.9101        113
  11.9287        131
  11.9473        120
  11.9659        131
  11.9844        129
  12.0030        114
  12.0216        122
  12.0402        118
  12.0587        104
  12.0773        122
  12.0959        129
  12.1145         98
  12.1330        100
  12.1516         99
  12.1702        120
  12.1888        101
  12.2073        122
  12.2259         99
  12.2445        128
  12.2631        105
  12.2816         81
  12.3002        130
  12.3188        129
  12.3374         95
  12.3559         92
  12.3745         88
  12.3931        109
  12.4117        108
  12.4302         93
  12.4488        120
  12.4674        106
  12.4860        103
  12.5045        114
  12.5231        116
  12.5417        108
  12.5603        109
  12.5788        105
  12.5974        125
  12.6160        111
  12.6346        116
  12.6531         98
  12.6717        109
  12.6903        104
  12.7089         93
  12.7274        107
  12.7460        108
  12.7646        135
  12.7832        113
  12.8018        108
  12.8203        113
  12.8389        103
  12.8575        118
  12.8761         89
  12.8946        103
  12.9132        100
  12.9318        109
  12.9504        108
  12.9689        100
  12.9875         99
  13.0061        104
  13.0247        111
  13.0432         92
  13.0618         89
  13.0804        101
  13.0990         98
  13.1175         98
  13.1361         95
  13.1547         87
  13.1733         98
  13.1918         91
  13.2104        104
  13.2290        106
  13.2476        102
  13.2661        108
  13.2847         81
  13.3033         81
  13.3219         99
  13.3404        100
  13.3590         98
  13.3776        108
  13.3962        100
  13.4147        115
  13.4333         92
  13.4519        108
  13.4705         95
  13.4890         89
  13.5076        106
  13.5262        104
  13.5448         93
  13.5634        100
  13.5819        124
  13.6005         94
  13.6191         91
  13.6377        102
  13.6562         87
  13.6748         80
  13.6934         97
  13.7120         94
  13.7305         82
  13.7491        111
  13.7677         92
  13.7863         93
  13.8048        104
  13.8234         85
  13.8420        100
  13.8606         90
  13.8791         97
  13.8977         96
  13.9163         78
  13.9349        105
  13.9534         83
  13.9720         86
  13.9906         84
  14.0092         88
  14.0277         81
  14.0463         69
  14.0649         96
  14.0835         85
  14.1020         88
  14.1206        102
  14.1392         86
  14.1578         85
  14.1763         85
  14.1949         95
  14.2135         93
  14.2321         83
  14.2506         91
  14.2692         97
  14.2878         80
  14.3064         85
  14.3250         97
  14.3435         97
  14.3621         99
  14.3807         85
  14.3993         96
  14.4178         89
  14.4364         96
  14.4550         96
  14.4736         65
  14.4921         93
  14.5107         76
  14.5293         92
  14.5479         93
  14.5664         92
  14.5850         97
  14.6036         97
  14.6222         86
  14.6407         76
  14.6593         82
  14.6779         80
  14.6965         91
  14.7150         84
  14.7336         83
  14.7522         84
  14.7708         95
  14.7893         95
  14.8079         90
  14.8265         81
  14.8451         76
  14.8636         87
  14.8822         82
  14.9008         88
  14.9194         84
  14.9379         89
  14.9565         89
  14.9751         92
  14.9937         67
  15.0122         90
  15.0308         78
  15.0494         74
  15.0680         71
  15.0866         96
  15.1051         87
  15.1237         86
  15.1423         79
  15.1609         82
  15.1794         80
  15.1980         62
  15.2166         77
  15.2352         85
  15.2537         71
  15.2723         85
  15.2909         84
  15.3095         81
  15.3280         84
  15.3466         81
  15.3652         93
  15.3838         68
  15.4023         95
  15.4209         89
  15.4395         82
  15.4581         72
  15.4766         84
  15.4952         83
  15.5138         76
  15.5324         79
  15.5509         74
  15.5695         72
  15.5881         87
  15.6067         92
  15.6252         68
  15.6438         92
  15.6624         83
  15.6810        100
  15.6995         75
  15.7181         91
  15.7367         63
  15.7553         63
  15.7738         70
  15.7924         75
  15.8110         68
  15.8296        103
  15.8482         86
  15.8667         99
  15.8853         68
  15.9039         81
  15.9225         92
  15.9410         82
  15.9596         78
  15.9782         68
  15.9968         88
  16.0153         97
  16.0339         76
  16.0525         75
  16.0711         85
  16.0896         85
  16.1082         71
  16.1268         81
  16.1454         93
  16.1639         82
  16.1825         80
  16.2011         94
  16.2197         84
  16.2382         79
  16.2568         87
  16.2754         95
  16.2940         69
  16.3125         78
  16.3311         88
  16.3497         75
  16.3683         79
  16.3868         82
  16.4054         73
  16.4240         84
  16.4426         91
  16.4611         96
  16.4797        100
  16.4983         83
  16.5169         81
  16.5354         83
  16.5540         83
  16.5726         85
  16.5912         78
  16.6097         84
  16.6283         61
  16.6469         88
  16.6655         91
  16.6841         88
  16.7026         76
  16.7212         91
  16.7398         67
  16.7584         77
  16.7769         78
  16.7955         84
  16.8141         72
  16.8327         72
  16.8512         81
  16.8698         65
  16.8884         76
  16.9070         90
  16.9255         84
  16.9441         89
  16.9627         80
  16.9813         65
  16.9998         84
  17.0184         84
  17.0370         75
  17.0556         89
  17.0741         91
  17.0927         76
  17.1113         87
  17.1299         71
  17.1484         78
  17.1670         79
  17.1856         74
  17.2042         90
  17.2227         94
  17.2413        100
  17.2599         77
  17.2785         76
  17.2970         66
  17.3156         78
  17.3342         70
  17.3528         76
  17.3713         73
  17.3899         87
  17.4085         79
  17.4271         81
  17.4457         96
  17.4642         85
  17.4828         67
  17.5014         87
  17.5200         74
  17.5385         77
  17.5571         76
  17.5757         85
  17.5943         86
  17.6128         84
  17.6314         91
  17.6500         75
  17.6686         78
  17.6871         91
  17.7057         84
  17.7243         76
  17.7429         91
  17.7614         73
  17.7800         99
  17.7986         88
  17.8172         80
  17.8357         67
  17.8543         76
  17.8729         88
  17.8915         84
  17.9100         98
  17.9286         85
  17.9472         77
  17.9658         88
  17.9843         86
  18.0029         81
  18.0215         71
  18.0401         85
  18.0586         89
  18.0772         73
  18.0958         67
  18.1144         71
  18.1329         59
  18.1515         62
  18.1701         80
  18.1887         92
  18.2073         78
  18.2258         88
  18.2444         90
  18.2630         89
  18.2816         87
  18.3001         84
  18.3187         75
  18.3373         85
  18.3559         95
  18.3744         76
  18.3930         82
  18.4116         77
  18.4302         81
  18.4487         83
  18.4673         77
  18.4859         90
  18.5045         75
  18.5230         78
  18.5416         99
  18.5602         90
  18.5788         85
  18.5973         68
  18.6159         82
  18.6345         93
  18.6531         72
  18.6716         87
  18.6902         83
  18.7088         75
  18.7274         83
  18.7459         77
  18.7645         85
  18.7831         84
  18.8017         77
  18.8202         78
  18.8388         78
  18.8574         77
  18.8760         76
  18.8945         95
  18.9131         92
  18.9317         82
  18.9503         82
  18.9689         71
  18.9874         75
  19.0060        107
  19.0246         71
  19.0432         92
  19.0617         78
  19.0803         77
  19.0989         95
  19.1175         74
  19.1360         86
  19.1546         89
  19.1732         78
  19.1918         86
  19.2103         75
  19.2289         78
  19.2475         90
  19.2661         86
  19.2846         83
  19.3032         94
  19.3218        100
  19.3404         79
  19.3589         82
  19.3775         80
  19.3961         97
  19.4147         80
  19.4332         94
  19.4518         95
  19.4704         96
  19.4890         76
  19.5075         93
  19.5261         87
  19.5447         92
  19.5633         95
  19.5818        101
  19.6004         79
  19.6190         74
  19.6376         88
  19.6561         90
  19.6747         70
  19.6933         69
  19.7119         99
  19.7305        100
  19.7490         85
  19.7676         73
  19.7862         90
  19.8048         93
  19.8233         83
  19.8419        105
  19.8605         87
  19.8791         90
  19.8976         80
  19.9162         96
  19.9348        100
  19.9534         81
  19.9719         91
  19.9905         88
  20.0091        100
  20.0277        100
  20.0462         77
  20.0648         98
  20.0834        101
  20.1020         87
  20.1205         83
  20.1391         76
  20.1577         94
  20.1763         63
  20.1948        104
  20.2134         94
  20.2320         86
  20.2506        105
  20.2691         75
  20.2877         95
  20.3063        100
  20.3249         97
  20.3434         92
  20.3620         80
  20.3806         94
  20.3992         85
  20.4177         86
  20.4363         87
  20.4549         83
  20.4735         85
  20.4921         92
  20.5106        105
  20.5292        100
  20.5478         96
  20.5664         78
  20.5849        105
  20.6035        101
  20.6221         79
  20.6407         89
  20.6592         89
  20.6778         96
  20.6964         89
  20.7150         90
  20.7335         93
  20.7521        106
  20.7707         84
  20.7893         92
  20.8078         93
  20.8264        113
  20.8450        105
  20.8636         93
  20.8821         95
  20.9007         88
  20.9193        100
  20.9379        104
  20.9564         96
  20.9750         97
  20.9936        109
  21.0122         88
  21.0307         90
  21.0493        111
  21.0679        101
  21.0865         89
  21.1050         87
  21.1236         93
  21.1422        124
  21.1608        108
  21.1793        120
  21.1979        136
  21.2165        165
  21.2351        169
  21.2537        171
  21.2722        143
  21.2908        149
  21.3094        172
  21.3280        204
  21.3465        238
  21.3651        251
  21.3837        229
  21.4023        184
  21.4208        195
  21.4394        145
  21.4580        114
  21.4766        100
  21.4951         96
  21.5137         90
  21.5323        108
  21.5509         87
  21.5694         99
  21.5880        115
  21.6066         93
  21.6252        108
  21.6437        105
  21.6623         86
  21.6809         88
  21.6995         90
  21.7180         91
  21.7366         97
  21.7552         95
  21.7738        115
  21.7923        103
  21.8109        104
  21.8295         75
  21.8481        100
  21.8666         82
  21.8852         96
  21.9038        118
  21.9224         80
  21.9409         79
  21.9595        112
  21.9781        100
  21.9967        111
  22.0152        100
  22.0338        101
  22.0524        103
  22.0710         89
  22.0896         88
  22.1081         94
  22.1267        110
  22.1453        103
  22.1639         93
  22.1824        103
  22.2010         97
  22.2196        104
  22.2382         96
  22.2567        101
  22.2753         82
  22.2939        108
  22.3125        109
  22.3310        110
  22.3496         81
  22.3682        109
  22.3868         98
  22.4053        108
  22.4239         91
  22.4425        125
  22.4611        104
  22.4796        104
  22.4982         99
  22.5168        100
  22.5354        107
  22.5539         95
  22.5725         83
  22.5911         97
  22.6097         93
  22.6282         90
  22.6468         99
  22.6654         90
  22.6840         97
  22.7025         97
  22.7211         98
  22.7397        100
  22.7583         94
  22.7768        101
  22.7954        109
  22.8140        102
  22.8326         90
  22.8512         99
  22.8697        101
  22.8883        119
  22.9069        122
  22.9255         85
  22.9440        105
  22.9626         94
  22.9812         95
  22.9998         83
  23.0183        100
  23.0369         93
  23.0555         87
  23.0741        107
  23.0926         91
  23.1112         91
  23.1298        102
  23.1484        117
  23.1669         96
  23.1855         88
  23.2041         93
  23.2227         86
  23.2412         74
  23.2598         97
  23.2784        117
  23.2970         90
  23.3155         77
  23.3341         92
  23.3527        106
  23.3713        101
  23.3898         88
  23.4084        115
  23.4270         90
  23.4456        101
  23.4641        107
  23.4827        112
  23.5013         98
  23.5199        121
  23.5384         86
  23.5570        110
  23.5756        101
  23.5942         98
  23.6128         79
  23.6313         97
  23.6499        110
  23.6685        109
  23.6871        107
  23.7056        106
  23.7242        122
  23.7428        104
  23.7614        108
  23.7799        111
  23.7985        106
  23.8171        102
  23.8357        106
  23.8542         81
  23.8728         97
  23.8914        104
  23.9100         96
  23.9285        131
  23.9471        101
  23.9657        109
  23.9843         99
  24.0028         96
  24.0214         99
  24.0400         93
  24.0586        112
  24.0771         97
  24.0957         99
  24.1143        125
  24.1329         91
  24.1514        103
  24.1700        103
  24.1886         98
  24.2072        106
  24.2257        105
  24.2443        126
  24.2629        123
  24.2815        118
  24.3000        108
  24.3186        109
  24.3372        115
  24.3558        112
  24.3744        100
  24.3929        103
  24.4115        108
  24.4301        111
  24.4487         95
  24.4672        108
  24.4858         88
  24.5044         94
  24.5230         95
  24.5415         81
  24.5601         96
  24.5787         95
  24.5973         90
  24.6158         93
  24.6344        101
  24.6530        100
  24.6716        105
  24.6901        100
  24.7087        103
  24.7273         85
  24.7459         93
  24.7644         95
  24.7830         99
  24.8016        100
  24.8202        105
  24.8387        108
  24.8573        103
  24.8759        115
  24.8945         92
  24.9130        117
  24.9316        114
  24.9502        102
  24.9688        101
  24.9873         94
  25.0059         98
  25.0245         99
  25.0431         75
  25.0616        112
  25.0802         90
  25.0988        118
  25.1174         77
  25.1360         98
  25.1545         85
  25.1731         91
  25.1917        103
  25.2103        104
  25.2288        111
  25.2474         98
  25.2660         84
  25.2846        104
  25.3031         92
  25.3217         96
  25.3403         98
  25.3589         81
  25.3774         89
  25.3960        102
  25.4146        103
  25.4332         94
  25.4517        107
  25.4703        104
  25.4889         93
  25.5075         94
  25.5260        108
  25.5446        101
  25.5632         94
  25.5818        102
  25.6003        109
  25.6189         86
  25.6375         87
  25.6561         87
  25.6746        105
  25.6932         79
  25.7118         81
  25.7304        104
  25.7489        100
  25.7675         81
  25.7861         92
  25.8047         99
  25.8232         94
  25.8418        104
  25.8604         93
  25.8790        113
  25.8976        106
  25.9161        103
  25.9347        105
  25.9533         95
  25.9719         94
  25.9904         99
  26.0090         89
  26.0276         86
  26.0462        113
  26.0647         73
  26.0833         98
  26.1019        101
  26.1205         91
  26.1390         89
  26.1576         76
  26.1762        106
  26.1948         86
  26.2133        103
  26.2319         97
  26.2505        101
  26.2691        111
  26.2876         99
  26.3062         89
  26.3248         87
  26.3434        102
  26.3619        114
  26.3805         98
  26.3991         85
  26.4177         93
  26.4362        107
  26.4548        102
  26.4734         88
  26.4920         72
  26.5105         86
  26.5291        109
  26.5477         83
  26.5663         81
  26.5848         92
  26.6034         83
  26.6220        100
  26.6406         89
  26.6591        103
  26.6777         85
  26.6963         88
  26.7149         90
  26.7335        103
  26.7520         99
  26.7706         97
  26.7892         83
  26.8078         94
  26.8263         87
  26.8449         88
  26.8635         92
  26.8821        110
  26.9006        102
  26.9192         94
  26.9378         82
  26.9564         93
  26.9749         97
  26.9935         86
  27.0121         88
  27.0307        106
  27.0492        103
  27.0678        111
  27.0864         99
  27.1050        101
  27.1235        125
  27.1421        106
  27.1607        116
  27.1793        135
  27.1978         93
  27.2164        122
  27.2350         92
  27.2536        116
  27.2721        108
  27.2907        126
  27.3093        100
  27.3279         90
  27.3464         93
  27.3650        100
  27.3836        103
  27.4022        104
  27.4207         75
  27.4393         95
  27.4579         92
  27.4765        107
  27.4951         83
  27.5136         99
  27.5322         85
  27.5508         89
  27.5694         92
  27.5879         83
  27.6065         97
  27.6251         91
  27.6437         77
  27.6622         86
  27.6808         89
  27.6994         76
  27.7180         83
  27.7365         85
  27.7551         89
  27.7737        103
  27.7923        102
  27.8108         88
  27.8294         93
  27.8480         89
  27.8666         79
  27.8851        100
  27.9037         76
  27.9223         90
  27.9409         96
  27.9594         77
  27.9780         77
  27.9966         91
  28.0152         99
  28.0337         78
  28.0523         84
  28.0709         76
  28.0895         90
  28.1080         76
  28.1266         92
  28.1452         84
  28.1638         90
  28.1823         74
  28.2009         84
  28.2195         64
  28.2381         83
  28.2567         90
  28.2752         91
  28.2938         89
  28.3124         84
  28.3310         90
  28.3495         72
  28.3681         86
  28.3867         76
  28.4053         80
  28.4238         94
  28.4424         89
  28.4610         85
  28.4796         84
  28.4981         76
  28.5167         93
  28.5353         89
  28.5539         95
  28.5724         86
  28.5910         86
  28.6096         79
  28.6282         79
  28.6467         79
  28.6653         87
  28.6839         82
  28.7025         79
  28.7210         89
  28.7396         70
  28.7582         85
  28.7768         74
  28.7953         93
  28.8139        101
  28.8325         90
  28.8511         85
  28.8696        102
  28.8882         74
  28.9068         83
  28.9254         80
  28.9439         75
  28.9625         88
  28.9811         87
  28.9997         86
  29.0183         75
  29.0368         85
  29.0554         90
  29.0740         88
  29.0926         83
  29.1111         87
  29.1297         81
  29.1483         92
  29.1669         77
  29.1854         82
  29.2040         83
  29.2226         77
  29.2412         77
  29.2597         92
  29.2783         89
  29.2969         83
  29.3155         73
  29.3340         81
  29.3526        106
  29.3712         82
  29.3898         86
  29.4083         90
  29.4269         71
  29.4455         74
  29.4641         77
  29.4826         73
  29.5012         75
  29.5198         87
  29.5384         72
  29.5569         82
  29.5755         73
  29.5941         83
  29.6127         77
  29.6312         70
  29.6498         77
  29.6684         67
  29.6870         85
  29.7055         67
  29.7241         86
  29.7427         79
  29.7613         69
  29.7799         86
  29.7984         74
  29.8170         79
  29.8356         87
  29.8542         86
  29.8727         75
  29.8913         91
  29.9099         85
  29.9285         67
  29.9470        103
  29.9656         81
  29.9842         74
  30.0028         80
  30.0213         94
  30.0399         73
  30.0585         64
  30.0771         69
  30.0956         75
  30.1142         78
  30.1328         67
  30.1514         82
  30.1699         96
  30.1885         73
  30.2071        104
  30.2257         85
  30.2442         87
  30.2628         81
  30.2814         62
  30.3000         81
  30.3185         84
  30.3371        111
  30.3557        132
  30.3743        165
  30.3928        182
  30.4114        137
  30.4300        121
  30.4486        115
  30.4671        123
  30.4857        103
  30.5043         84
  30.5229         78
  30.5415         69
  30.5600         85
  30.5786         84
  30.5972         71
  30.6158         71
  30.6343         75
  30.6529         77
  30.6715         78
  30.6901         77
  30.7086         75
  30.7272         69
  30.7458         78
  30.7644         63
  30.7829         78
  30.8015         77
  30.8201         77
  30.8387         77
  30.8572         69
  30.8758         76
  30.8944         68
  30.9130         81
  30.9315         88
  30.9501         73
  30.9687         69
  30.9873         66
  31.0058         64
  31.0244         56
  31.0430         74
  31.0616         85
  31.0801         73
  31.0987         67
  31.1173         74
  31.1359         90
  31.1544         55
  31.1730         70
  31.1916         77
  31.2102         85
  31.2287         73
  31.2473         75
  31.2659         71
  31.2845         68
  31.3030         66
  31.3216         78
  31.3402         63
  31.3588         68
  31.3774         69
  31.3959         54
  31.4145         68
  31.4331         50
  31.4517         67
  31.4702         86
  31.4888         72
  31.5074         71
  31.5260         74
  31.5445         67
  31.5631         72
  31.5817         65
  31.6003         74
  31.6188         64
  31.6374         81
  31.6560         68
  31.6746         68
  31.6931         82
  31.7117         59
  31.7303         64
  31.7489         71
  31.7674         60
  31.7860         46
  31.8046         58
  31.8232         59
  31.8417         74
  31.8603         70
  31.8789         74
  31.8975         62
  31.9160         73
  31.9346         89
  31.9532         57
  31.9718         67
  31.9903         72
  32.0089         60
  32.0275         64
  32.0461         63
  32.0646         68
  32.0832         64
  32.1018         77
  32.1204         57
  32.1390         67
  32.1575         71
  32.1761         59
  32.1947         80
  32.2133         65
  32.2318         70
  32.2504         59
  32.2690         73
  32.2876         71
  32.3061         69
  32.3247         74
  32.3433         94
  32.3619         80
  32.3804         77
  32.3990         63
  32.4176         70
  32.4362         70
  32.4547         84
  32.4733         82
  32.4919         75
  32.5105         77
  32.5290         72
  32.5476         72
  32.5662         66
  32.5848         56
  32.6033         60
  32.6219         64
  32.6405         74
  32.6591         54
  32.6776         68
  32.6962         78
  32.7148         48
  32.7334         58
  32.7519         60
  32.7705         58
  32.7891         58
  32.8077         57
  32.8262         63
  32.8448         66
  32.8634         73
  32.8820         56
  32.9006         65
  32.9191         55
  32.9377         56
  32.9563         71
  32.9749         51
  32.9934         59
  33.0120         58
  33.0306         59
  33.0492         62
  33.0677         65
  33.0863         57
  33.1049         60
  33.1235         65
  33.1420         60
  33.1606         63
  33.1792         57
  33.1978         65
  33.2163         70
  33.2349         64
  33.2535         54
  33.2721         52
  33.2906         66
  33.3092         52
  33.3278         63
  33.3464         60
  33.3649         57
  33.3835         59
  33.4021         61
  33.4207         58
  33.4392         48
  33.4578         47
  33.4764         61
  33.4950         61
  33.5135         59
  33.5321         54
  33.5507         69
  33.5693         53
  33.5878         51
  33.6064         53
  33.6250         65
  33.6436         65
  33.6622         55
  33.6807         70
  33.6993         56
  33.7179         56
  33.7365         68
  33.7550         44
  33.7736         53
  33.7922         60
  33.8108         58
  33.8293         53
  33.8479         68
  33.8665         51
  33.8851         63
  33.9036         65
  33.9222         66
  33.9408         68
  33.9594         63
  33.9779         55
  33.9965         58
  34.0151         80
  34.0337         62
  34.0522         65
  34.0708         57
  34.0894         65
  34.1080         64
  34.1265         73
  34.1451         56
  34.1637         60
  34.1823         67
  34.2008         61
  34.2194         54
  34.2380         56
  34.2566         50
  34.2751         63
  34.2937         56
  34.3123         47
  34.3309         47
  34.3494         57
  34.3680         69
  34.3866         64
  34.4052         54
  34.4238         42
  34.4423         49
  34.4609         64
  34.4795         67
  34.4981         57
  34.5166         41
  34.5352         57
  34.5538         56
  34.5724         54
  34.5909         68
  34.6095         66
  34.6281         51
  34.6467         53
  34.6652         67
  34.6838         92
  34.7024         77
  34.7210         65
  34.7395         52
  34.7581         61
  34.7767         91
  34.7953         75
  34.8138         62
  34.8324         72
  34.8510         54
  34.8696         71
  34.8881         82
  34.9067         71
  34.9253         39
  34.9439         49
  34.9624         53
  34.9810         59
  34.9996         49
  35.0182         64
  35.0367         49
  35.0553         60
  35.0739         60
  35.0925         38
  35.1110         48
  35.1296         46
  35.1482         43
  35.1668         51
  35.1854         51
  35.2039         55
  35.2225         54
  35.2411         49
  35.2597         58
  35.2782         51
  35.2968         35
  35.3154         58
  35.3340         44
  35.3525         35
  35.3711         46
  35.3897         24
  35.4083         50
  35.4268         44
  35.4454         63
  35.4640         55
  35.4826         43
  35.5011         43
  35.5197         54
  35.5383         42
  35.5569         53
  35.5754         40
  35.5940         44
  35.6126         53
  35.6312         47
  35.6497         48
  35.6683         56
  35.6869         48
  35.7055         53
  35.7240         47
  35.7426         47
  35.7612         49
  35.7798         54
  35.7983         50
  35.8169         41
  35.8355         50
  35.8541         50
  35.8726         40
  35.8912         52
  35.9098         49
  35.9284         44
  35.9469         62
  35.9655         52
  35.9841         42
  36.0027         47
  36.0213         49
  36.0398         37
  36.0584         55
  36.0770         42
  36.0956         51
  36.1141         43
  36.1327         46
  36.1513         54
  36.1699         43
  36.1884         42
  36.2070         37
  36.2256         44
  36.2442         55
  36.2627         54
  36.2813         59
  36.2999         43
  36.3185         62
  36.3370         50
  36.3556         42
  36.3742         51
  36.3928         43
  36.4113         46
  36.4299         52
  36.4485         57
  36.4671         58
  36.4856         57
  36.5042         51
  36.5228         51
  36.5414         47
  36.5599         36
  36.5785         65
  36.5971         46
  36.6157         63
  36.6342         50
  36.6528         47
  36.6714         34
  36.6900         51
  36.7085         35
  36.7271         41
  36.7457         57
  36.7643         56
  36.7829         50
  36.8014         37
  36.8200         44
  36.8386         43
  36.8572         44
  36.8757         45
  36.8943         49
  36.9129         33
  36.9315         49
  36.9500         55
  36.9686         44
  36.9872         40
  37.0058         62
  37.0243         56
  37.0429         51
  37.0615         36
  37.0801         49
  37.0986         64
  37.1172         55
  37.1358         55
  37.1544         42
  37.1729         55
  37.1915         52
  37.2101         46
  37.2287         54
  37.2472         57
  37.2658         49
  37.2844         42
  37.3030         36
  37.3215         43
  37.3401         45
  37.3587         58
  37.3773         48
  37.3958         56
  37.4144         71
  37.4330         75
  37.4516         74
  37.4701         66
  37.4887         56
  37.5073         58
  37.5259         57
  37.5445         55
  37.5630         61
  37.5816         48
  37.6002         52
  37.6188         45
  37.6373         41
  37.6559         40
  37.6745         38
  37.6931         46
  37.7116         50
  37.7302         44
  37.7488         53
  37.7674         49
  37.7859         44
  37.8045         43
  37.8231         41
  37.8417         42
  37.8602         33
  37.8788         54
  37.8974         40
  37.9160         38
  37.9345         35
  37.9531         53
  37.9717         40
  37.9903         31
  38.0088         33
  38.0274         36
  38.0460         36
  38.0646         40
  38.0831         50
  38.1017         51
  38.1203         46
  38.1389         29
  38.1574         41
  38.1760         39
  38.1946         49
  38.2132         28
  38.2317         44
  38.2503         43
  38.2689         40
  38.2875         44
  38.3061         37
  38.3246         46
  38.3432         39
  38.3618         46
  38.3804         37
  38.3989         37
  38.4175         47
  38.4361         46
  38.4547         41
  38.4732         36
  38.4918         42
  38.5104         38
  38.5290         47
  38.5475         45
  38.5661         52
  38.5847         46
  38.6033         34
  38.6218         43
  38.6404         50
  38.6590         45
  38.6776         47
  38.6961         34
  38.7147         35
  38.7333         41
  38.7519         42
  38.7704         36
  38.7890         41
  38.8076         40
  38.8262         50
  38.8447         40
  38.8633         35
  38.8819         44
  38.9005         42
  38.9190         40
  38.9376         40
  38.9562         47
  38.9748         46
  38.9933         33
  39.0119         42
  39.0305         52
  39.0491         44
  39.0677         34
  39.0862         49
  39.1048         38
  39.1234         36
  39.1420         38
  39.1605         31
  39.1791         35
  39.1977         44
  39.2163         39
  39.2348         39
  39.2534         26
  39.2720         44
  39.2906         44
  39.3091         33
  39.3277         33
  39.3463         35
  39.3649         33
  39.3834         37
  39.4020         41
  39.4206         36
  39.4392         38
  39.4577         37
  39.4763         38
  39.4949         45
  39.5135         33
  39.5320         53
  39.5506         42
  39.5692         35
  39.5878         50
  39.6063         46
  39.6249         35
  39.6435         38
  39.6621         38
  39.6806         36
  39.6992         45
  39.7178         45
  39.7364         39
  39.7549         30
  39.7735         48
  39.7921         34
  39.8107         32
  39.8293         30
  39.8478         41
  39.8664         39
  39.8850         36
  39.9036         33
  39.9221         38
  39.9407         43
  39.9593         36
  39.9779         41
  39.9964         38
  40.0150         35
  40.0336         42
  40.0522         32
  40.0707         40
  40.0893         43
  40.1079         35
  40.1265         43
  40.1450         40
  40.1636         44
  40.1822         42
  40.2008         31
  40.2193         37
  40.2379         25
  40.2565         30
  40.2751         24
  40.2936         47
  40.3122         35
  40.3308         39
  40.3494         38
  40.3679         32
  40.3865         33
  40.4051         49
  40.4237         43
  40.4422         36
  40.4608         36
  40.4794         45
  40.4980         48
  40.5165         32
  40.5351         51
  40.5537         32
  40.5723         36
  40.5908         47
  40.6094         39
  40.6280         38
  40.6466         40
  40.6652         36
  40.6837         44
  40.7023         33
  40.7209         41
  40.7395         49
  40.7580         37
  40.7766         38
  40.7952         43
  40.8138         34
  40.8323         40
  40.8509         46
  40.8695         42
  40.8881         30
  40.9066         43
  40.9252         46
  40.9438         49
  40.9624         42
  40.9809         48
  40.9995         67
  41.0181         44
  41.0367         41
  41.0552         49
  41.0738         49
  41.0924         36
  41.1110         39
  41.1295         36
  41.1481         34
  41.1667         43
  41.1853         37
  41.2038         29
  41.2224         35
  41.2410         36
  41.2596         34
  41.2781         29
  41.2967         43
  41.3153         29
  41.3339         38
  41.3524         45
  41.3710         28
  41.3896         37
  41.4082         42
  41.4268         34
  41.4453         39
  41.4639         40
  41.4825         29
  41.5011         44
  41.5196         37
  41.5382         37
  41.5568         37
  41.5754         35
  41.5939         37
  41.6125         31
  41.6311         38
  41.6497         44
  41.6682         30
  41.6868         35
  41.7054         46
  41.7240         38
  41.7425         35
  41.7611         39
  41.7797         34
  41.7983         36
  41.8168         34
  41.8354         43
  41.8540         41
  41.8726         24
  41.8911         32
  41.9097         34
  41.9283         32
  41.9469         24
  41.9654         43
  41.9840         36
  42.0026         37
  42.0212         52
  42.0397         45
  42.0583         35
  42.0769         43
  42.0955         39
  42.1140         53
  42.1326         42
  42.1512         40
  42.1698         29
  42.1884         32
  42.2069         31
  42.2255         35
  42.2441         37
  42.2627         42
  42.2812         31
  42.2998         27
  42.3184         32
  42.3370         35
  42.3555         27
  42.3741         45
  42.3927         42
  42.4113         42
  42.4298         48
  42.4484         35
  42.4670         38
  42.4856         38
  42.5041         37
  42.5227         31
  42.5413         36
  42.5599         31
  42.5784         38
  42.5970         45
  42.6156         36
  42.6342         37
  42.6527         43
  42.6713         38
  42.6899         30
  42.7085         36
  42.7270         30
  42.7456         38
  42.7642         24
  42.7828         39
  42.8013         35
  42.8199         37
  42.8385         43
  42.8571         37
  42.8756         26
  42.8942         38
  42.9128         33
  42.9314         40
  42.9500         49
  42.9685         41
  42.9871         33
  43.0057         36
  43.0243         33
  43.0428         40
  43.0614         42
  43.0800         42
  43.0986         30
  43.1171         31
  43.1357         38
  43.1543         41
  43.1729         42
  43.1914         48
  43.2100         54
  43.2286         47
  43.2472         51
  43.2657         35
  43.2843         46
  43.3029         38
  43.3215         36
  43.3400         47
  43.3586         37
  43.3772         37
  43.3958         34
  43.4143         36
  43.4329         37
  43.4515         50
  43.4701         59
  43.4886         50
  43.5072         69
  43.5258         62
  43.5444         42
  43.5629         40
  43.5815         36
  43.6001         52
  43.6187         52
  43.6372         48
  43.6558         35
  43.6744         32
  43.6930         29
  43.7116         36
  43.7301         33
  43.7487         47
  43.7673         47
  43.7859         42
  43.8044         36
  43.8230         35
  43.8416         36
  43.8602         42
  43.8787         36
  43.8973         36
  43.9159         35
  43.9345         35
  43.9530         36
  43.9716         40
  43.9902         42
  44.0088         41
  44.0273         28
  44.0459         25
  44.0645         30
  44.0831         38
  44.1016         34
  44.1202         36
  44.1388         36
  44.1574         34
  44.1759         30
  44.1945         34
  44.2131         41
  44.2317         38
  44.2502         29
  44.2688         40
  44.2874         35
  44.3060         33
  44.3245         42
  44.3431         34
  44.3617         43
  44.3803         33
  44.3988         50
  44.4174         37
  44.4360         39
  44.4546         42
  44.4732         33
  44.4917         30
  44.5103         47
  44.5289         36
  44.5475         42
  44.5660         41
  44.5846         28
  44.6032         49
  44.6218         33
  44.6403         33
  44.6589         46
  44.6775         52
  44.6961         44
  44.7146         51
  44.7332         39
  44.7518         30
  44.7704         42
  44.7889         41
  44.8075         48
  44.8261         46
  44.8447         41
  44.8632         42
  44.8818         53
  44.9004         42
  44.9190         39
  44.9375         31
  44.9561         31
  44.9747         29
  44.9933         38
  45.0118         34
  45.0304         29
  45.0490         31
  45.0676         32
  45.0861         30
  45.1047         40
  45.1233         36
  45.1419         31
  45.1604         33
  45.1790         37
  45.1976         49
  45.2162         34
  45.2347         48
  45.2533         35
  45.2719         33
  45.2905         52
  45.3091         31
  45.3276         26
  45.3462         31
  45.3648         27
  45.3834         39
  45.4019         20
  45.4205         29
  45.4391         39
  45.4577         44
  45.4762         34
  45.4948         28
  45.5134         31
  45.5320         31
  45.5505         37
  45.5691         33
  45.5877         32
  45.6063         34
  45.6248         42
  45.6434         40
  45.6620         19
  45.6806         34
  45.6991         41
  45.7177         37
  45.7363         39
  45.7549         40
  45.7734         39
  45.7920         28
  45.8106         35
  45.8292         34
  45.8477         37
  45.8663         29
  45.8849         45
  45.9035         35
  45.9220         34
  45.9406         26
  45.9592         21
  45.9778         38
  45.9963         27
  46.0149         36
  46.0335         41
  46.0521         25
  46.0707         20
  46.0892         32
  46.1078         29
  46.1264         29
  46.1450         27
  46.1635         27
  46.1821         31
  46.2007         39
  46.2193         40
  46.2378         33
  46.2564         25
  46.2750         36
  46.2936         37
  46.3121         24
  46.3307         32
  46.3493         34
  46.3679         37
  46.3864         40
  46.4050         28
  46.4236         31
  46.4422         30
  46.4607         37
  46.4793         35
  46.4979         34
  46.5165         36
  46.5350         38
  46.5536         40
  46.5722         26
  46.5908         30
  46.6093         27
  46.6279         26
  46.6465         39
  46.6651         30
  46.6836         40
  46.7022         24
  46.7208         30
  46.7394         33
  46.7579         34
  46.7765         32
  46.7951         25
  46.8137         34
  46.8323         35
  46.8508         25
  46.8694         30
  46.8880         32
  46.9066         19
  46.9251         37
  46.9437         35
  46.9623         32
  46.9809         33
  46.9994         31
  47.0180         28
  47.0366         31
  47.0552         28
  47.0737         15
  47.0923         35
  47.1109         30
  47.1295         21
  47.1480         48
  47.1666         28
  47.1852         29
  47.2038         23
  47.2223         34
  47.2409         34
  47.2595         33
  47.2781         24
  47.2966         34
  47.3152         29
  47.3338         24
  47.3524         36
  47.3709         30
  47.3895         27
  47.4081         37
  47.4267         27
  47.4452         30
  47.4638         39
  47.4824         28
  47.5010         32
  47.5195         30
  47.5381         32
  47.5567         37
  47.5753         28
  47.5939         35
  47.6124         33
  47.6310         31
  47.6496         30
  47.6682         33
  47.6867         40
  47.7053         36
  47.7239         28
  47.7425         29
  47.7610         37
  47.7796         39
  47.7982         25
  47.8168         32
  47.8353         29
  47.8539         32
  47.8725         28
  47.8911         26
  47.9096         34
  47.9282         31
  47.9468         24
  47.9654         27
  47.9839         21
  48.0025         34
  48.0211         36
  48.0397         36
  48.0582         22
  48.0768         39
  48.0954         35
  48.1140         29
  48.1325         35
  48.1511         38
  48.1697         29
  48.1883         36
  48.2068         29
  48.2254         30
  48.2440         27
  48.2626         36
  48.2811         28
  48.2997         34
  48.3183         32
  48.3369         27
  48.3555         34
  48.3740         35
  48.3926         31
  48.4112         35
  48.4298         22
  48.4483         22
  48.4669         21
  48.4855         28
  48.5041         33
  48.5226         31
  48.5412         25
  48.5598         40
  48.5784         43
  48.5969         35
  48.6155         23
  48.6341         26
  48.6527         24
  48.6712         35
  48.6898         32
  48.7084         30
  48.7270         35
  48.7455         43
  48.7641         38
  48.7827         37
  48.8013         32
  48.8198         36
  48.8384         31
  48.8570         23
  48.8756         35
  48.8941         31
  48.9127         38
  48.9313         45
  48.9499         45
  48.9684         54
  48.9870         58
  49.0056         36
  49.0242         42
  49.0427         45
  49.0613         36
  49.0799         41
  49.0985         55
  49.1171         44
  49.1356         27
  49.1542         36
  49.1728         38
  49.1914         37
  49.2099         47
  49.2285         40
  49.2471         24
  49.2657         29
  49.2842         33
  49.3028         34
  49.3214         31
  49.3400         33
  49.3585         27
  49.3771         32
  49.3957         33
  49.4143         28
  49.4328         40
  49.4514         31
  49.4700         25
  49.4886         33
  49.5071         37
  49.5257         28
  49.5443         19
  49.5629         20
  49.5814         29
  49.6000         36
  49.6186         31
  49.6372         26
  49.6557         26
  49.6743         28
  49.6929         30
  49.7115         37
  49.7300         34
  49.7486         29
  49.7672         19
  49.7858         40
  49.8043         29
  49.8229         31
  49.8415         32
  49.8601         30
  49.8786         29
  49.8972         35
  49.9158         37
  49.9344         24
  49.9530         24
  49.9715         27
  49.9901         38
  50.0087         34
  50.0273         26
  50.0458         29
  50.0644         31
  50.0830         26
  50.1016         27
  50.1201         33
  50.1387         29
  50.1573         31
  50.1759         34
  50.1944         37
  50.2130         29
  50.2316         31
  50.2502         31
  50.2687         37
  50.2873         34
  50.3059         31
  50.3245         27
  50.3430         35
  50.3616         20
  50.3802         33
  50.3988         35
  50.4173         21
  50.4359         23
  50.4545         27
  50.4731         34
  50.4916         27
  50.5102         37
  50.5288         32
  50.5474         27
  50.5659         33
  50.5845         32
  50.6031         20
  50.6217         28
  50.6402         28
  50.6588         35
  50.6774         30
  50.6960         35
  50.7146         32
  50.7331         27
  50.7517         25
  50.7703         26
  50.7889         29
  50.8074         30
  50.8260         23
  50.8446         34
  50.8632         22
  50.8817         30
  50.9003         25
  50.9189         24
  50.9375         13
  50.9560         21
  50.9746         32
  50.9932         28
  51.0118         26
  51.0303         27
  51.0489         31
  51.0675         27
  51.0861         29
  51.1046         31
  51.1232         38
  51.1418         26
  51.1604         31
  51.1789         29
  51.1975         29
  51.2161         35
  51.2347         24
  51.2532         23
  51.2718         31
  51.2904         28
  51.3090         29
  51.3275         29
  51.3461         25
  51.3647         32
  51.3833         41
  51.4018         22
  51.4204         35
  51.4390         37
  51.4576         29
  51.4762         18
  51.4947         30
  51.5133         32
  51.5319         33
  51.5505         38
  51.5690         32
  51.5876         25
  51.6062         28
  51.6248         37
  51.6433         31
  51.6619         30
  51.6805         40
  51.6991         28
  51.7176         42
  51.7362         28
  51.7548         27
  51.7734         31
  51.7919         30
  51.8105         34
  51.8291         28
  51.8477         29
  51.8662         31
  51.8848         34
  51.9034         31
  51.9220         30
  51.9405         32
  51.9591         35
  51.9777         28
  51.9963         33
  52.0148         30
  52.0334         26
  52.0520         29
  52.0706         24
  52.0891         27
  52.1077         32
  52.1263         25
  52.1449         40
  52.1634         42
  52.1820         35
  52.2006         21
  52.2192         28
  52.2378         34
  52.2563         37
  52.2749         25
  52.2935         33
  52.3121         37
  52.3306         20
  52.3492         27
  52.3678         37
  52.3864         31
  52.4049         27
  52.4235         30
  52.4421         32
  52.4607         32
  52.4792         38
  52.4978         23
  52.5164         29
  52.5350         21
  52.5535         29
  52.5721         32
  52.5907         35
  52.6093         26
  52.6278         24
  52.6464         26
  52.6650         34
  52.6836         32
  52.7021         38
  52.7207         37
  52.7393         22
  52.7579         25
  52.7764         32
  52.7950         18
  52.8136         24
  52.8322         29
  52.8507         25
  52.8693         28
  52.8879         21
  52.9065         29
  52.9250         33
  52.9436         29
  52.9622         33
  52.9808         41
  52.9994         24
  53.0179         27
  53.0365         30
  53.0551         29
  53.0737         29
  53.0922         31
  53.1108         32
  53.1294         27
  53.1480         35
  53.1665         39
  53.1851         24
  53.2037         35
  53.2223         26
  53.2408         40
  53.2594         27
  53.2780         27
  53.2966         29
  53.3151         28
  53.3337         33
  53.3523         27
  53.3709         26
  53.3894         29
  53.4080         16
  53.4266         31
  53.4452         27
  53.4637         33
  53.4823         29
  53.5009         30
  53.5195         28
  53.5380         42
  53.5566         20
  53.5752         28
  53.5938         33
  53.6123         24
  53.6309         27
  53.6495         16
  53.6681         23
  53.6866         35
  53.7052         25
  53.7238         29
  53.7424         28
  53.7610         25
  53.7795         31
  53.7981         17
  53.8167         35
  53.8353         36
  53.8538         29
  53.8724         39
  53.8910         31
  53.9096         29
  53.9281         43
  53.9467         30
  53.9653         35
  53.9839         46
  54.0024         46
  54.0210         44
  54.0396         34
  54.0582         33
  54.0767         36
  54.0953         43
  54.1139         32
  54.1325         33
  54.1510         35
  54.1696         43
  54.1882         30
  54.2068         33
  54.2253         32
  54.2439         30
  54.2625         30
  54.2811         38
  54.2996         28
  54.3182         28
  54.3368         21
  54.3554         26
  54.3739         27
  54.3925         20
  54.4111         24
  54.4297         25
  54.4482         22
  54.4668         28
  54.4854         29
  54.5040         23
  54.5225         27
  54.5411         27
  54.5597         24
  54.5783         30
  54.5969         19
  54.6154         21
  54.6340         35
  54.6526         24
  54.6712         27
  54.6897         31
  54.7083         29
  54.7269         27
  54.7455         22
  54.7640         28
  54.7826         30
  54.8012         25
  54.8198         30
  54.8383         29
  54.8569         28
  54.8755         36
  54.8941         30
  54.9126         25
  54.9312         22
  54.9498         25
  54.9684         25
  54.9869         33
  55.0055         27
  55.0241         30
  55.0427         28
  55.0612         21
  55.0798         30
  55.0984         29
  55.1170         35
  55.1355         33
  55.1541         32
  55.1727         24
  55.1913         26
  55.2098         31
  55.2284         28
  55.2470         25
  55.2656         33
  55.2841         34
  55.3027         28
  55.3213         26
  55.3399         27
  55.3585         22
  55.3770         27
  55.3956         29
  55.4142         28
  55.4328         18
  55.4513         25
  55.4699         27
  55.4885         33
  55.5071         27
  55.5256         25
  55.5442         27
  55.5628         30
  55.5814         33
  55.5999         28
  55.6185         36
  55.6371         31
  55.6557         26
  55.6742         27
  55.6928         27
  55.7114         17
  55.7300         25
  55.7485         23
  55.7671         13
  55.7857         35
  55.8043         22
  55.8228         29
  55.8414         30
  55.8600         31
  55.8786         26
  55.8971         31
  55.9157         34
  55.9343         18
  55.9529         24
  55.9714         35
  55.9900         28
  56.0086         30
  56.0272         24
  56.0457         20
  56.0643         22
  56.0829         35
  56.1015         24
  56.1201         40
  56.1386         23
  56.1572         29
  56.1758         27
  56.1944         31
  56.2129         37
  56.2315         34
  56.2501         42
  56.2687         29
  56.2872         35
  56.3058         31
  56.3244         36
  56.3430         29
  56.3615         28
  56.3801         33
  56.3987         36
  56.4173         27
  56.4358         40
  56.4544         27
  56.4730         23
  56.4916         38
  56.5101         28
  56.5287         29
  56.5473         21
  56.5659         22
  56.5844         14
  56.6030         25
  56.6216         32
  56.6402         25
  56.6587         31
  56.6773         24
  56.6959         32
  56.7145         28
  56.7330         24
  56.7516         38
  56.7702         43
  56.7888         28
  56.8073         30
  56.8259         21
  56.8445         28
  56.8631         20
  56.8817         26
  56.9002         25
  56.9188         25
  56.9374         27
  56.9560         36
  56.9745         24
  56.9931         20
  57.0117         18
  57.0303         28
  57.0488         28
  57.0674         34
  57.0860         31
  57.1046         29
  57.1231         33
  57.1417         25
  57.1603         22
  57.1789         25
  57.1974         32
  57.2160         27
  57.2346         38
  57.2532         20
  57.2717         27
  57.2903         26
  57.3089         26
  57.3275         24
  57.3460         30
  57.3646         21
  57.3832         18
  57.4018         24
  57.4203         28
  57.4389         33
  57.4575         22
  57.4761         27
  57.4946         28
  57.5132         18
  57.5318         24
  57.5504         26
  57.5689         18
  57.5875         34
  57.6061         33
  57.6247         31
  57.6433         15
  57.6618         37
  57.6804         38
  57.6990         23
  57.7176         32
  57.7361         36
  57.7547         27
  57.7733         21
  57.7919         22
  57.8104         31
  57.8290         26
  57.8476         37
  57.8662         40
  57.8847         29
  57.9033         33
  57.9219         28
  57.9405         29
  57.9590         27
  57.9776         30
  57.9962         23
  58.0148         22
  58.0333         26
  58.0519         29
  58.0705         21
  58.0891         31
  58.1076         23
  58.1262         31
  58.1448         35
  58.1634         24
  58.1819         30
  58.2005         33
  58.2191         22
  58.2377         25
  58.2562         18
  58.2748         25
  58.2934         32
  58.3120         37
  58.3305         30
  58.3491         27
  58.3677         28
  58.3863         20
  58.4049         31
  58.4234         28
  58.4420         29
  58.4606         33
  58.4792         31
  58.4977         21
  58.5163         31
  58.5349         31
  58.5535         27
  58.5720         24
  58.5906         20
  58.6092         29
  58.6278         20
  58.6463         30
  58.6649         25
  58.6835         32
  58.7021         34
  58.7206         24
  58.7392         26
  58.7578         31
  58.7764         23
  58.7949         29
  58.8135         32
  58.8321         27
  58.8507         20
  58.8692         33
  58.8878         29
  58.9064         30
  58.9250         31
  58.9435         36
  58.9621         30
  58.9807         16
  58.9993         21
  59.0178         30
  59.0364         31
  59.0550         25
  59.0736         28
  59.0921         25
  59.1107         21
  59.1293         26
  59.1479         23
  59.1664         32
  59.1850         21
  59.2036         40
  59.2222         20
  59.2408         26
  59.2593         25
  59.2779         40
  59.2965         24
  59.3151         28
  59.3336         34
  59.3522         32
  59.3708         28
  59.3894         30
  59.4079         28
  59.4265         29
  59.4451         31
  59.4637         19
  59.4822         26
  59.5008         27
  59.5194         37
  59.5380         32
  59.5565         24
  59.5751         35
  59.5937         26
  59.6123         25
  59.6308         27
  59.6494         25
  59.6680         23
  59.6866         33
  59.7051         32
  59.7237         32
  59.7423         21
  59.7609         26
  59.7794         27
  59.7980         24
  59.8166         14
  59.8352         36
  59.8537         32
  59.8723         26
  59.8909         30
  59.9095         28
  59.9280         32
  59.9466         22
  59.9652         24
  59.9838         26
  60.0024         33
