;,2THETA,
5.0000,131
5.0186,121
5.0372,110
5.0557,127
5.0743,139
5.0929,124
5.1115,124
5.1300,117
5.1486,149
5.1672,117
5.1858,127
5.2043,117
5.2229,121
5.2415,119
5.2601,109
5.2786,123
5.2972,98
5.3158,126
5.3344,111
5.3529,120
5.3715,118
5.3901,135
5.4087,127
5.4272,134
5.4458,110
5.4644,120
5.4830,117
5.5015,118
5.5201,114
5.5387,110
5.5573,123
5.5758,117
5.5944,110
5.6130,104
5.6316,139
5.6501,119
5.6687,114
5.6873,111
5.7059,112
5.7244,106
5.7430,92
5.7616,91
5.7802,110
5.7988,102
5.8173,99
5.8359,97
5.8545,87
5.8731,107
5.8916,112
5.9102,90
5.9288,107
5.9474,79
5.9659,100
5.9845,120
6.0031,109
6.0217,97
6.0402,90
6.0588,103
6.0774,105
6.0960,86
6.1145,88
6.1331,99
6.1517,94
6.1703,102
6.1888,91
6.2074,82
6.2260,99
6.2446,87
6.2631,93
6.2817,88
6.3003,110
6.3189,99
6.3374,93
6.3560,78
6.3746,97
6.3932,102
6.4117,92
6.4303,82
6.4489,76
6.4675,84
6.4860,94
6.5046,95
6.5232,90
6.5418,94
6.5604,86
6.5789,89
6.5975,88
6.6161,103
6.6347,87
6.6532,92
6.6718,91
6.6904,78
6.7090,75
6.7275,76
6.7461,92
6.7647,101
6.7833,85
6.8018,75
6.8204,80
6.8390,86
6.8576,102
6.8761,78
6.8947,91
6.9133,83
6.9319,84
6.9504,72
6.9690,74
6.9876,76
7.0062,88
7.0247,76
7.0433,71
7.0619,76
7.0805,84
7.0990,70
7.1176,82
7.1362,80
7.1548,72
7.1733,71
7.1919,70
7.2105,97
7.2291,81
7.2476,72
7.2662,66
7.2848,73
7.3034,73
7.3220,74
7.3405,59
7.3591,81
7.3777,57
7.3963,82
7.4148,92
7.4334,78
7.4520,92
7.4706,85
7.4891,69
7.5077,80
7.5263,86
7.5449,86
7.5634,72
7.5820,77
7.6006,101
7.6192,88
7.6377,86
7.6563,85
7.6749,95
7.6935,87
7.7120,90
7.7306,78
7.7492,89
7.7678,76
7.7863,90
7.8049,100
7.8235,95
7.8421,99
7.8606,70
7.8792,103
7.8978,90
7.9164,81
7.9349,98
7.9535,95
7.9721,80
7.9907,82
8.0092,70
8.0278,92
8.0464,103
8.0650,94
8.0835,99
8.1021,105
8.1207,81
8.1393,100
8.1579,89
8.1764,89
8.1950,101
8.2136,116
8.2322,97
8.2507,114
8.2693,93
8.2879,74
8.3065,112
8.3250,109
8.3436,90
8.3622,77
8.3808,99
8.3993,106
8.4179,96
8.4365,89
8.4551,100
8.4736,93
8.4922,109
8.5108,85
8.5294,101
8.5479,111
8.5665,104
8.5851,101
8.6037,109
8.6222,105
8.6408,109
8.6594,69
8.6780,95
8.6965,100
8.7151,101
8.7337,83
8.7523,104
8.7708,96
8.7894,92
8.8080,107
8.8266,93
8.8451,126
8.8637,119
8.8823,132
8.9009,99
8.9195,86
8.9380,95
8.9566,98
8.9752,105
8.9938,115
9.0123,108
9.0309,104
9.0495,115
9.0681,100
9.0866,118
9.1052,121
9.1238,112
9.1424,95
9.1609,100
9.1795,108
9.1981,105
9.2167,92
9.2352,104
9.2538,92
9.2724,107
9.2910,103
9.3095,134
9.3281,105
9.3467,102
9.3653,115
9.3838,110
9.4024,114
9.4210,107
9.4396,108
9.4581,107
9.4767,109
9.4953,109
9.5139,98
9.5324,103
9.5510,114
9.5696,104
9.5882,118
9.6067,87
9.6253,106
9.6439,97
9.6625,108
9.6811,90
9.6996,116
9.7182,105
9.7368,121
9.7554,92
9.7739,111
9.7925,111
9.8111,133
9.8297,120
9.8482,116
9.8668,117
9.8854,105
9.9040,101
9.9225,132
9.9411,121
9.9597,118
9.9783,115
9.9968,125
10.0154,121
10.0340,128
10.0526,114
10.0711,133
10.0897,120
10.1083,113
10.1269,112
10.1454,119
10.1640,120
10.1826,121
10.2012,129
10.2197,93
10.2383,115
10.2569,117
10.2755,106
10.2940,117
10.3126,131
10.3312,131
10.3498,113
10.3683,118
10.3869,139
10.4055,109
10.4241,142
10.4427,115
10.4612,126
10.4798,112
10.4984,106
10.5170,126
10.5355,101
10.5541,102
10.5727,119
10.5913,107
10.6098,123
10.6284,120
10.6470,156
10.6656,103
10.6841,110
10.7027,116
10.7213,107
10.7399,116
10.7584,130
10.7770,122
10.7956,129
10.8142,106
10.8327,114
10.8513,123
10.8699,117
10.8885,108
10.9070,117
10.9256,125
10.9442,141
10.9628,114
10.9813,124
10.9999,127
11.0185,112
11.0371,123
11.0556,120
11.0742,114
11.0928,106
11.1114,130
11.1299,117
11.1485,113
11.1671,116
11.1857,134
11.2043,119
11.2228,114
11.2414,101
11.2600,104
11.2786,119
11.2971,122
11.3157,122
11.3343,140
11.3529,114
11.3714,124
11.3900,134
11.4086,135
11.4272,106
11.4457,122
11.4643,105
11.4829,128
11.5015,114
11.5200,113
11.5386,91
11.5572,112
11.5758,112
11.5943,145
11.6129,122
11.6315,126
11.6501,123
11.6686,115
11.6872,114
11.7058,126
11.7244,119
11.7429,111
11.7615,129
11.7801,115
11.7987,102
11.8172,121
11.8358,114
11.8544,123
11.8730,118
11.8915,119
11.9101,119
11.9287,115
11.9473,112
11.9659,118
11.9844,104
12.0030,122
12.0216,88
12.0402,119
12.0587,130
12.0773,118
12.0959,117
12.1145,134
12.1330,107
12.1516,95
12.1702,132
12.1888,118
12.2073,119
12.2259,128
12.2445,104
12.2631,120
12.2816,110
12.3002,109
12.3188,114
12.3374,116
12.3559,116
12.3745,105
12.3931,98
12.4117,121
12.4302,115
12.4488,117
12.4674,121
12.4860,120
12.5045,100
12.5231,108
12.5417,96
12.5603,113
12.5788,83
12.5974,100
12.6160,116
12.6346,109
12.6531,101
12.6717,111
12.6903,108
12.7089,99
12.7274,111
12.7460,95
12.7646,113
12.7832,124
12.8018,125
12.8203,96
12.8389,101
12.8575,103
12.8761,89
12.8946,92
12.9132,88
12.9318,109
12.9504,91
12.9689,94
12.9875,100
13.0061,102
13.0247,104
13.0432,91
13.0618,116
13.0804,95
13.0990,119
13.1175,102
13.1361,110
13.1547,105
13.1733,88
13.1918,107
13.2104,111
13.2290,108
13.2476,95
13.2661,98
13.2847,103
13.3033,93
13.3219,87
13.3404,95
13.3590,99
13.3776,100
13.3962,95
13.4147,103
13.4333,114
13.4519,98
13.4705,82
13.4890,110
13.5076,123
13.5262,88
13.5448,94
13.5634,127
13.5819,91
13.6005,95
13.6191,93
13.6377,86
13.6562,102
13.6748,80
13.6934,97
13.7120,85
13.7305,94
13.7491,94
13.7677,92
13.7863,109
13.8048,118
13.8234,100
13.8420,90
13.8606,104
13.8791,111
13.8977,101
13.9163,85
13.9349,104
13.9534,105
13.9720,88
13.9906,80
14.0092,80
14.0277,92
14.0463,91
14.0649,100
14.0835,90
14.1020,100
14.1206,86
14.1392,88
14.1578,80
14.1763,102
14.1949,84
14.2135,100
14.2321,106
14.2506,86
14.2692,66
14.2878,74
14.3064,101
14.3250,84
14.3435,83
14.3621,79
14.3807,85
14.3993,80
14.4178,94
14.4364,81
14.4550,84
14.4736,88
14.4921,79
14.5107,84
14.5293,85
14.5479,87
14.5664,73
14.5850,81
14.6036,79
14.6222,71
14.6407,83
14.6593,84
14.6779,94
14.6965,91
14.7150,93
14.7336,102
14.7522,77
14.7708,75
14.7893,73
14.8079,73
14.8265,99
14.8451,75
14.8636,86
14.8822,110
14.9008,79
14.9194,87
14.9379,81
14.9565,97
14.9751,77
14.9937,91
15.0122,77
15.0308,83
15.0494,89
15.0680,78
15.0866,71
15.1051,88
15.1237,75
15.1423,79
15.1609,85
15.1794,96
15.1980,93
15.2166,78
15.2352,87
15.2537,80
15.2723,71
15.2909,93
15.3095,91
15.3280,82
15.3466,85
15.3652,87
15.3838,77
15.4023,85
15.4209,78
15.4395,88
15.4581,92
15.4766,79
15.4952,88
15.5138,70
15.5324,82
15.5509,88
15.5695,65
15.5881,83
15.6067,84
15.6252,90
15.6438,86
15.6624,82
15.6810,95
15.6995,82
15.7181,92
15.7367,77
15.7553,82
15.7738,88
15.7924,92
15.8110,83
15.8296,85
15.8482,85
15.8667,76
15.8853,69
15.9039,85
15.9225,81
15.9410,72
15.9596,83
15.9782,72
15.9968,72
16.0153,103
16.0339,83
16.0525,68
16.0711,89
16.0896,79
16.1082,66
16.1268,82
16.1454,57
16.1639,76
16.1825,93
16.2011,82
16.2197,86
16.2382,84
16.2568,87
16.2754,87
16.2940,89
16.3125,68
16.3311,86
16.3497,83
16.3683,77
16.3868,75
16.4054,77
16.4240,79
16.4426,73
16.4611,84
16.4797,73
16.4983,84
16.5169,79
16.5354,77
16.5540,80
16.5726,82
16.5912,82
16.6097,77
16.6283,85
16.6469,81
16.6655,74
16.6841,76
16.7026,80
16.7212,65
16.7398,83
16.7584,101
16.7769,68
16.7955,69
16.8141,90
16.8327,79
16.8512,74
16.8698,83
16.8884,76
16.9070,78
16.9255,76
16.9441,88
16.9627,79
16.9813,76
16.9998,75
17.0184,75
17.0370,89
17.0556,63
17.0741,77
17.0927,85
17.1113,75
17.1299,86
17.1484,74
17.1670,69
17.1856,80
17.2042,92
17.2227,76
17.2413,89
17.2599,74
17.2785,81
17.2970,84
17.3156,84
17.3342,87
17.3528,78
17.3713,82
17.3899,66
17.4085,84
17.4271,73
17.4457,87
17.4642,81
17.4828,70
17.5014,88
17.5200,61
17.5385,81
17.5571,64
17.5757,69
17.5943,81
17.6128,77
17.6314,76
17.6500,71
17.6686,79
17.6871,106
17.7057,66
17.7243,80
17.7429,86
17.7614,88
17.7800,79
17.7986,78
17.8172,75
17.8357,63
17.8543,87
17.8729,100
17.8915,76
17.9100,81
17.9286,76
17.9472,79
17.9658,69
17.9843,74
18.0029,92
18.0215,82
18.0401,91
18.0586,88
18.0772,97
18.0958,79
18.1144,90
18.1329,73
18.1515,83
18.1701,72
18.1887,85
18.2073,80
18.2258,74
18.2444,59
18.2630,83
18.2816,86
18.3001,87
18.3187,93
18.3373,85
18.3559,81
18.3744,89
18.3930,77
18.4116,87
18.4302,85
18.4487,88
18.4673,95
18.4859,74
18.5045,95
18.5230,79
18.5416,76
18.5602,68
18.5788,77
18.5973,89
18.6159,83
18.6345,84
18.6531,85
18.6716,73
18.6902,84
18.7088,98
18.7274,70
18.7459,92
18.7645,72
18.7831,78
18.8017,64
18.8202,78
18.8388,79
18.8574,58
18.8760,80
18.8945,79
18.9131,97
18.9317,79
18.9503,99
18.9689,101
18.9874,94
19.0060,95
19.0246,66
19.0432,75
19.0617,88
19.0803,80
19.0989,92
19.1175,85
19.1360,85
19.1546,80
19.1732,80
19.1918,97
19.2103,84
19.2289,88
19.2475,109
19.2661,93
19.2846,85
19.3032,80
19.3218,82
19.3404,83
19.3589,86
19.3775,79
19.3961,72
19.4147,91
19.4332,88
19.4518,97
19.4704,85
19.4890,94
19.5075,89
19.5261,80
19.5447,89
19.5633,74
19.5818,89
19.6004,86
19.6190,79
19.6376,84
19.6561,115
19.6747,99
19.6933,95
19.7119,83
19.7305,91
19.7490,103
19.7676,75
19.7862,77
19.8048,95
19.8233,92
19.8419,72
19.8605,98
19.8791,85
19.8976,108
19.9162,85
19.9348,78
19.9534,94
19.9719,84
19.9905,86
20.0091,84
20.0277,90
20.0462,96
20.0648,94
20.0834,101
20.1020,95
20.1205,82
20.1391,89
20.1577,80
20.1763,96
20.1948,87
20.2134,81
20.2320,93
20.2506,101
20.2691,69
20.2877,82
20.3063,80
20.3249,99
20.3434,97
20.3620,100
20.3806,82
20.3992,79
20.4177,103
20.4363,85
20.4549,90
20.4735,80
20.4921,90
20.5106,104
20.5292,83
20.5478,82
20.5664,99
20.5849,89
20.6035,81
20.6221,81
20.6407,78
20.6592,101
20.6778,87
20.6964,95
20.7150,71
20.7335,95
20.7521,89
20.7707,88
20.7893,97
20.8078,98
20.8264,90
20.8450,101
20.8636,105
20.8821,93
20.9007,97
20.9193,104
20.9379,97
20.9564,94
20.9750,83
20.9936,99
21.0122,92
21.0307,105
21.0493,95
21.0679,113
21.0865,91
21.1050,92
21.1236,97
21.1422,114
21.1608,102
21.1793,119
21.1979,164
21.2165,144
21.2351,165
21.2537,140
21.2722,120
21.2908,131
21.3094,173
21.3280,198
21.3465,248
21.3651,244
21.3837,215
21.4023,217
21.4208,166
21.4394,154
21.4580,130
21.4766,90
21.4951,126
21.5137,101
21.5323,99
21.5509,101
21.5694,100
21.5880,89
21.6066,111
21.6252,94
21.6437,96
21.6623,93
21.6809,107
21.6995,107
21.7180,112
21.7366,103
21.7552,96
21.7738,102
21.7923,81
21.8109,108
21.8295,104
21.8481,94
21.8666,95
21.8852,81
21.9038,97
21.9224,104
21.9409,97
21.9595,96
21.9781,105
21.9967,101
22.0152,102
22.0338,100
22.0524,102
22.0710,98
22.0896,97
22.1081,98
22.1267,101
22.1453,107
22.1639,112
22.1824,114
22.2010,96
22.2196,103
22.2382,104
22.2567,94
22.2753,95
22.2939,90
22.3125,87
22.3310,104
22.3496,113
22.3682,88
22.3868,98
22.4053,92
22.4239,90
22.4425,91
22.4611,107
22.4796,94
22.4982,81
22.5168,92
22.5354,111
22.5539,88
22.5725,94
22.5911,88
22.6097,95
22.6282,91
22.6468,92
22.6654,103
22.6840,88
22.7025,111
22.7211,102
22.7397,87
22.7583,108
22.7768,108
22.7954,92
22.8140,108
22.8326,99
22.8512,107
22.8697,102
22.8883,105
22.9069,108
22.9255,107
22.9440,83
22.9626,100
22.9812,97
22.9998,90
23.0183,112
23.0369,110
23.0555,105
23.0741,118
23.0926,94
23.1112,99
23.1298,108
23.1484,89
23.1669,98
23.1855,99
23.2041,74
23.2227,96
23.2412,100
23.2598,115
23.2784,118
23.2970,89
23.3155,101
23.3341,93
23.3527,87
23.3713,111
23.3898,95
23.4084,92
23.4270,126
23.4456,103
23.4641,96
23.4827,111
23.5013,112
23.5199,95
23.5384,107
23.5570,96
23.5756,102
23.5942,90
23.6128,109
23.6313,101
23.6499,107
23.6685,105
23.6871,99
23.7056,97
23.7242,102
23.7428,106
23.7614,100
23.7799,87
23.7985,103
23.8171,109
23.8357,116
23.8542,91
23.8728,90
23.8914,98
23.9100,105
23.9285,109
23.9471,103
23.9657,119
23.9843,101
24.0028,101
24.0214,81
24.0400,100
24.0586,103
24.0771,108
24.0957,106
24.1143,106
24.1329,88
24.1514,110
24.1700,103
24.1886,109
24.2072,121
24.2257,99
24.2443,100
24.2629,132
24.2815,115
24.3000,114
24.3186,108
24.3372,90
24.3558,108
24.3744,111
24.3929,115
24.4115,105
24.4301,111
24.4487,117
24.4672,110
24.4858,112
24.5044,116
24.5230,101
24.5415,90
24.5601,88
24.5787,115
24.5973,111
24.6158,100
24.6344,96
24.6530,91
24.6716,94
24.6901,83
24.7087,100
24.7273,80
24.7459,90
24.7644,92
24.7830,90
24.8016,89
24.8202,91
24.8387,116
24.8573,103
24.8759,114
24.8945,105
24.9130,92
24.9316,69
24.9502,81
24.9688,94
24.9873,104
25.0059,101
25.0245,101
25.0431,106
25.0616,99
25.0802,97
25.0988,91
25.1174,98
25.1360,103
25.1545,102
25.1731,97
25.1917,96
25.2103,112
25.2288,103
25.2474,90
25.2660,100
25.2846,82
25.3031,94
25.3217,91
25.3403,82
25.3589,99
25.3774,101
25.3960,91
25.4146,110
25.4332,98
25.4517,81
25.4703,103
25.4889,93
25.5075,106
25.5260,105
25.5446,92
25.5632,94
25.5818,97
25.6003,100
25.6189,91
25.6375,84
25.6561,119
25.6746,109
25.6932,103
25.7118,95
25.7304,94
25.7489,84
25.7675,105
25.7861,103
25.8047,91
25.8232,92
25.8418,93
25.8604,85
25.8790,96
25.8976,89
25.9161,94
25.9347,81
25.9533,93
25.9719,86
25.9904,103
26.0090,114
26.0276,84
26.0462,110
26.0647,86
26.0833,94
26.1019,89
26.1205,88
26.1390,106
26.1576,107
26.1762,92
26.1948,82
26.2133,78
26.2319,76
26.2505,84
26.2691,96
26.2876,93
26.3062,91
26.3248,94
26.3434,95
26.3619,93
26.3805,81
26.3991,104
26.4177,89
26.4362,94
26.4548,98
26.4734,89
26.4920,98
26.5105,90
26.5291,90
26.5477,96
26.5663,93
26.5848,97
26.6034,81
26.6220,90
26.6406,100
26.6591,89
26.6777,83
26.6963,107
26.7149,104
26.7335,90
26.7520,91
26.7706,96
26.7892,120
26.8078,99
26.8263,99
26.8449,96
26.8635,96
26.8821,84
26.9006,91
26.9192,84
26.9378,105
26.9564,115
26.9749,91
26.9935,89
27.0121,81
27.0307,86
27.0492,97
27.0678,103
27.0864,94
27.1050,84
27.1235,94
27.1421,100
27.1607,108
27.1793,120
27.1978,124
27.2164,96
27.2350,108
27.2536,134
27.2721,104
27.2907,96
27.3093,107
27.3279,88
27.3464,85
27.3650,86
27.3836,98
27.4022,100
27.4207,103
27.4393,90
27.4579,99
27.4765,112
27.4951,97
27.5136,91
27.5322,107
27.5508,91
27.5694,93
27.5879,96
27.6065,90
27.6251,102
27.6437,62
27.6622,99
27.6808,91
27.6994,97
27.7180,84
27.7365,85
27.7551,99
27.7737,84
27.7923,73
27.8108,88
27.8294,92
27.8480,86
27.8666,87
27.8851,95
27.9037,87
27.9223,100
27.9409,78
27.9594,80
27.9780,86
27.9966,80
28.0152,91
28.0337,83
28.0523,79
28.0709,119
28.0895,98
28.1080,70
28.1266,101
28.1452,94
28.1638,87
28.1823,86
28.2009,74
28.2195,86
28.2381,66
28.2567,83
28.2752,84
28.2938,84
28.3124,72
28.3310,74
28.3495,85
28.3681,86
28.3867,82
28.4053,96
28.4238,86
28.4424,80
28.4610,65
28.4796,75
28.4981,76
28.5167,73
28.5353,64
28.5539,72
28.5724,81
28.5910,83
28.6096,78
28.6282,80
28.6467,75
28.6653,84
28.6839,95
28.7025,92
28.7210,84
28.7396,79
28.7582,83
28.7768,58
28.7953,85
28.8139,88
28.8325,81
28.8511,85
28.8696,84
28.8882,86
28.9068,84
28.9254,91
28.9439,86
28.9625,73
28.9811,72
28.9997,75
29.0183,76
29.0368,89
29.0554,75
29.0740,84
29.0926,74
29.1111,81
29.1297,81
29.1483,74
29.1669,86
29.1854,69
29.2040,80
29.2226,73
29.2412,87
29.2597,83
29.2783,89
29.2969,86
29.3155,100
29.3340,79
29.3526,92
29.3712,90
29.3898,99
29.4083,76
29.4269,78
29.4455,80
29.4641,70
29.4826,92
29.5012,84
29.5198,63
29.5384,87
29.5569,78
29.5755,93
29.5941,57
29.6127,89
29.6312,80
29.6498,86
29.6684,55
29.6870,69
29.7055,92
29.7241,64
29.7427,81
29.7613,81
29.7799,78
29.7984,88
29.8170,98
29.8356,82
29.8542,74
29.8727,90
29.8913,64
29.9099,81
29.9285,76
29.9470,71
29.9656,82
29.9842,83
30.0028,82
30.0213,109
30.0399,79
30.0585,80
30.0771,67
30.0956,74
30.1142,65
30.1328,76
30.1514,76
30.1699,69
30.1885,72
30.2071,88
30.2257,77
30.2442,82
30.2628,79
30.2814,92
30.3000,96
30.3185,86
30.3371,86
30.3557,116
30.3743,153
30.3928,170
30.4114,152
30.4300,109
30.4486,112
30.4671,121
30.4857,101
30.5043,84
30.5229,84
30.5415,83
30.5600,71
30.5786,73
30.5972,70
30.6158,83
30.6343,78
30.6529,78
30.6715,75
30.6901,58
30.7086,86
30.7272,68
30.7458,86
30.7644,67
30.7829,60
30.8015,72
30.8201,81
30.8387,71
30.8572,67
30.8758,71
30.8944,76
30.9130,70
30.9315,77
30.9501,64
30.9687,85
30.9873,78
31.0058,68
31.0244,60
31.0430,61
31.0616,91
31.0801,75
31.0987,60
31.1173,82
31.1359,52
31.1544,65
31.1730,69
31.1916,74
31.2102,78
31.2287,74
31.2473,74
31.2659,55
31.2845,69
31.3030,90
31.3216,69
31.3402,65
31.3588,61
31.3774,68
31.3959,66
31.4145,71
31.4331,84
31.4517,67
31.4702,60
31.4888,67
31.5074,61
31.5260,81
31.5445,60
31.5631,56
31.5817,74
31.6003,73
31.6188,55
31.6374,64
31.6560,58
31.6746,67
31.6931,63
31.7117,80
31.7303,64
31.7489,69
31.7674,66
31.7860,75
31.8046,65
31.8232,52
31.8417,72
31.8603,74
31.8789,63
31.8975,69
31.9160,75
31.9346,72
31.9532,80
31.9718,55
31.9903,60
32.0089,74
32.0275,67
32.0461,58
32.0646,64
32.0832,69
32.1018,73
32.1204,68
32.1390,75
32.1575,58
32.1761,66
32.1947,70
32.2133,76
32.2318,56
32.2504,63
32.2690,64
32.2876,57
32.3061,61
32.3247,81
32.3433,65
32.3619,65
32.3804,77
32.3990,75
32.4176,78
32.4362,80
32.4547,69
32.4733,74
32.4919,67
32.5105,82
32.5290,73
32.5476,77
32.5662,78
32.5848,79
32.6033,65
32.6219,63
32.6405,44
32.6591,60
32.6776,46
32.6962,61
32.7148,70
32.7334,52
32.7519,67
32.7705,51
32.7891,60
32.8077,70
32.8262,70
32.8448,62
32.8634,64
32.8820,61
32.9006,61
32.9191,60
32.9377,61
32.9563,53
32.9749,58
32.9934,67
33.0120,62
33.0306,61
33.0492,73
33.0677,60
33.0863,64
33.1049,69
33.1235,52
33.1420,66
33.1606,56
33.1792,72
33.1978,59
33.2163,43
33.2349,67
33.2535,61
33.2721,54
33.2906,51
33.3092,57
33.3278,56
33.3464,68
33.3649,66
33.3835,52
33.4021,68
33.4207,58
33.4392,50
33.4578,71
33.4764,54
33.4950,66
33.5135,61
33.5321,57
33.5507,63
33.5693,64
33.5878,54
33.6064,52
33.6250,50
33.6436,58
33.6622,57
33.6807,52
33.6993,66
33.7179,56
33.7365,70
33.7550,62
33.7736,62
33.7922,52
33.8108,52
33.8293,62
33.8479,59
33.8665,60
33.8851,55
33.9036,62
33.9222,63
33.9408,56
33.9594,52
33.9779,55
33.9965,58
34.0151,61
34.0337,66
34.0522,62
34.0708,69
34.0894,59
34.1080,62
34.1265,47
34.1451,60
34.1637,57
34.1823,69
34.2008,66
34.2194,47
34.2380,52
34.2566,59
34.2751,63
34.2937,53
34.3123,54
34.3309,51
34.3494,60
34.3680,57
34.3866,55
34.4052,47
34.4238,57
34.4423,50
34.4609,46
34.4795,51
34.4981,47
34.5166,57
34.5352,44
34.5538,64
34.5724,49
34.5909,80
34.6095,58
34.6281,64
34.6467,77
34.6652,77
34.6838,67
34.7024,64
34.7210,72
34.7395,79
34.7581,72
34.7767,90
34.7953,73
34.8138,74
34.8324,79
34.8510,87
34.8696,55
34.8881,60
34.9067,61
34.9253,49
34.9439,47
34.9624,49
34.9810,60
34.9996,54
35.0182,46
35.0367,56
35.0553,35
35.0739,55
35.0925,62
35.1110,49
35.1296,64
35.1482,59
35.1668,46
35.1854,56
35.2039,56
35.2225,55
35.2411,46
35.2597,56
35.2782,51
35.2968,49
35.3154,57
35.3340,52
35.3525,55
35.3711,56
35.3897,43
35.4083,40
35.4268,45
35.4454,53
35.4640,52
35.4826,38
35.5011,49
35.5197,54
35.5383,53
35.5569,51
35.5754,49
35.5940,46
35.6126,56
35.6312,53
35.6497,57
35.6683,58
35.6869,38
35.7055,51
35.7240,54
35.7426,61
35.7612,34
35.7798,45
35.7983,51
35.8169,53
35.8355,46
35.8541,53
35.8726,50
35.8912,52
35.9098,63
35.9284,57
35.9469,50
35.9655,49
35.9841,46
36.0027,46
36.0213,51
36.0398,55
36.0584,51
36.0770,47
36.0956,54
36.1141,45
36.1327,53
36.1513,44
36.1699,46
36.1884,53
36.2070,48
36.2256,55
36.2442,50
36.2627,47
36.2813,53
36.2999,55
36.3185,55
36.3370,55
36.3556,43
36.3742,38
36.3928,38
36.4113,51
36.4299,53
36.4485,49
36.4671,52
36.4856,46
36.5042,33
36.5228,43
36.5414,38
36.5599,40
36.5785,44
36.5971,51
36.6157,43
36.6342,41
36.6528,55
36.6714,55
36.6900,50
36.7085,44
36.7271,39
36.7457,47
36.7643,50
36.7829,51
36.8014,57
36.8200,49
36.8386,47
36.8572,58
36.8757,52
36.8943,38
36.9129,45
36.9315,48
36.9500,45
36.9686,50
36.9872,45
37.0058,35
37.0243,44
37.0429,49
37.0615,40
37.0801,47
37.0986,45
37.1172,49
37.1358,40
37.1544,50
37.1729,38
37.1915,45
37.2101,43
37.2287,54
37.2472,44
37.2658,43
37.2844,67
37.3030,50
37.3215,50
37.3401,45
37.3587,48
37.3773,49
37.3958,46
37.4144,71
37.4330,83
37.4516,79
37.4701,71
37.4887,48
37.5073,56
37.5259,56
37.5445,55
37.5630,66
37.5816,42
37.6002,52
37.6188,44
37.6373,41
37.6559,38
37.6745,41
37.6931,50
37.7116,46
37.7302,51
37.7488,39
37.7674,38
37.7859,46
37.8045,45
37.8231,45
37.8417,49
37.8602,46
37.8788,44
37.8974,48
37.9160,44
37.9345,45
37.9531,43
37.9717,40
37.9903,40
38.0088,41
38.0274,44
38.0460,38
38.0646,43
38.0831,42
38.1017,38
38.1203,30
38.1389,48
38.1574,42
38.1760,43
38.1946,43
38.2132,48
38.2317,46
38.2503,41
38.2689,38
38.2875,40
38.3061,42
38.3246,42
38.3432,39
38.3618,44
38.3804,45
38.3989,42
38.4175,33
38.4361,49
38.4547,39
38.4732,47
38.4918,48
38.5104,52
38.5290,44
38.5475,42
38.5661,42
38.5847,41
38.6033,36
38.6218,38
38.6404,48
38.6590,41
38.6776,34
38.6961,43
38.7147,45
38.7333,38
38.7519,53
38.7704,54
38.7890,30
38.8076,44
38.8262,31
38.8447,43
38.8633,52
38.8819,39
38.9005,33
38.9190,43
38.9376,43
38.9562,39
38.9748,39
38.9933,47
39.0119,40
39.0305,33
39.0491,44
39.0677,35
39.0862,39
39.1048,54
39.1234,31
39.1420,52
39.1605,48
39.1791,38
39.1977,44
39.2163,38
39.2348,44
39.2534,38
39.2720,46
39.2906,34
39.3091,39
39.3277,39
39.3463,39
39.3649,41
39.3834,24
39.4020,36
39.4206,42
39.4392,32
39.4577,58
39.4763,45
39.4949,41
39.5135,42
39.5320,44
39.5506,40
39.5692,33
39.5878,48
39.6063,33
39.6249,36
39.6435,31
39.6621,33
39.6806,35
39.6992,34
39.7178,32
39.7364,46
39.7549,36
39.7735,42
39.7921,38
39.8107,40
39.8293,34
39.8478,36
39.8664,45
39.8850,31
39.9036,34
39.9221,38
39.9407,25
39.9593,43
39.9779,43
39.9964,54
40.0150,41
40.0336,43
40.0522,53
40.0707,50
40.0893,33
40.1079,44
40.1265,43
40.1450,34
40.1636,35
40.1822,37
40.2008,49
40.2193,33
40.2379,37
40.2565,41
40.2751,40
40.2936,40
40.3122,34
40.3308,37
40.3494,42
40.3679,36
40.3865,43
40.4051,41
40.4237,24
40.4422,39
40.4608,32
40.4794,38
40.4980,42
40.5165,43
40.5351,33
40.5537,33
40.5723,43
40.5908,43
40.6094,49
40.6280,48
40.6466,33
40.6652,37
40.6837,35
40.7023,34
40.7209,37
40.7395,38
40.7580,33
40.7766,34
40.7952,36
40.8138,48
40.8323,40
40.8509,39
40.8695,44
40.8881,38
40.9066,40
40.9252,51
40.9438,49
40.9624,39
40.9809,40
40.9995,31
41.0181,40
41.0367,47
41.0552,35
41.0738,41
41.0924,34
41.1110,36
41.1295,44
41.1481,31
41.1667,41
41.1853,52
41.2038,32
41.2224,28
41.2410,38
41.2596,36
41.2781,36
41.2967,39
41.3153,39
41.3339,29
41.3524,38
41.3710,27
41.3896,40
41.4082,42
41.4268,35
41.4453,43
41.4639,36
41.4825,37
41.5011,34
41.5196,42
41.5382,31
41.5568,29
41.5754,41
41.5939,42
41.6125,29
41.6311,26
41.6497,37
41.6682,36
41.6868,40
41.7054,29
41.7240,43
41.7425,41
41.7611,35
41.7797,35
41.7983,35
41.8168,38
41.8354,29
41.8540,36
41.8726,42
41.8911,47
41.9097,32
41.9283,29
41.9469,38
41.9654,36
41.9840,35
42.0026,33
42.0212,35
42.0397,30
42.0583,35
42.0769,27
42.0955,37
42.1140,44
42.1326,33
42.1512,30
42.1698,28
42.1884,32
42.2069,23
42.2255,37
42.2441,38
42.2627,44
42.2812,28
42.2998,41
42.3184,38
42.3370,31
42.3555,35
42.3741,31
42.3927,33
42.4113,34
42.4298,24
42.4484,35
42.4670,36
42.4856,31
42.5041,52
42.5227,44
42.5413,48
42.5599,35
42.5784,27
42.5970,32
42.6156,26
42.6342,17
42.6527,32
42.6713,32
42.6899,36
42.7085,38
42.7270,35
42.7456,32
42.7642,35
42.7828,45
42.8013,35
42.8199,47
42.8385,34
42.8571,36
42.8756,34
42.8942,46
42.9128,42
42.9314,41
42.9500,40
42.9685,35
42.9871,29
43.0057,26
43.0243,32
43.0428,39
43.0614,35
43.0800,39
43.0986,48
43.1171,42
43.1357,33
43.1543,53
43.1729,43
43.1914,40
43.2100,35
43.2286,37
43.2472,37
43.2657,41
43.2843,45
43.3029,33
43.3215,45
43.3400,39
43.3586,52
43.3772,42
43.3958,41
43.4143,27
43.4329,39
43.4515,46
43.4701,51
43.4886,65
43.5072,69
43.5258,55
43.5444,44
43.5629,52
43.5815,54
43.6001,49
43.6187,58
43.6372,62
43.6558,40
43.6744,40
43.6930,39
43.7116,30
43.7301,48
43.7487,33
43.7673,37
43.7859,41
43.8044,43
43.8230,26
43.8416,31
43.8602,32
43.8787,48
43.8973,47
43.9159,33
43.9345,42
43.9530,48
43.9716,37
43.9902,38
44.0088,40
44.0273,34
44.0459,25
44.0645,32
44.0831,41
44.1016,25
44.1202,43
44.1388,29
44.1574,42
44.1759,45
44.1945,30
44.2131,43
44.2317,38
44.2502,44
44.2688,41
44.2874,45
44.3060,34
44.3245,38
44.3431,44
44.3617,42
44.3803,39
44.3988,40
44.4174,42
44.4360,38
44.4546,45
44.4732,36
44.4917,44
44.5103,41
44.5289,34
44.5475,35
44.5660,42
44.5846,40
44.6032,40
44.6218,38
44.6403,36
44.6589,37
44.6775,36
44.6961,41
44.7146,35
44.7332,38
44.7518,40
44.7704,32
44.7889,36
44.8075,40
44.8261,32
44.8447,35
44.8632,32
44.8818,42
44.9004,32
44.9190,40
44.9375,43
44.9561,30
44.9747,32
44.9933,35
45.0118,42
45.0304,43
45.0490,29
45.0676,29
45.0861,26
45.1047,23
45.1233,26
45.1419,34
45.1604,39
45.1790,37
45.1976,37
45.2162,45
45.2347,29
45.2533,42
45.2719,41
45.2905,29
45.3091,29
45.3276,31
45.3462,33
45.3648,30
45.3834,39
45.4019,45
45.4205,39
45.4391,36
45.4577,37
45.4762,32
45.4948,41
45.5134,42
45.5320,33
45.5505,31
45.5691,32
45.5877,44
45.6063,33
45.6248,24
45.6434,28
45.6620,37
45.6806,23
45.6991,26
45.7177,22
45.7363,32
45.7549,37
45.7734,28
45.7920,40
45.8106,30
45.8292,28
45.8477,35
45.8663,34
45.8849,20
45.9035,42
45.9220,34
45.9406,29
45.9592,35
45.9778,34
45.9963,27
46.0149,33
46.0335,32
46.0521,35
46.0707,36
46.0892,30
46.1078,33
46.1264,34
46.1450,33
46.1635,38
46.1821,25
46.2007,36
46.2193,28
46.2378,32
46.2564,40
46.2750,33
46.2936,28
46.3121,29
46.3307,35
46.3493,37
46.3679,26
46.3864,40
46.4050,27
46.4236,37
46.4422,37
46.4607,29
46.4793,33
46.4979,26
46.5165,37
46.5350,43
46.5536,44
46.5722,20
46.5908,37
46.6093,30
46.6279,25
46.6465,38
46.6651,30
46.6836,30
46.7022,38
46.7208,37
46.7394,44
46.7579,40
46.7765,27
46.7951,31
46.8137,34
46.8323,25
46.8508,35
46.8694,29
46.8880,33
46.9066,36
46.9251,35
46.9437,25
46.9623,36
46.9809,20
46.9994,28
47.0180,30
47.0366,38
47.0552,31
47.0737,38
47.0923,30
47.1109,27
47.1295,24
47.1480,29
47.1666,31
47.1852,38
47.2038,26
47.2223,36
47.2409,26
47.2595,36
47.2781,27
47.2966,44
47.3152,23
47.3338,31
47.3524,44
47.3709,31
47.3895,29
47.4081,32
47.4267,31
47.4452,30
47.4638,26
47.4824,21
47.5010,37
47.5195,25
47.5381,32
47.5567,33
47.5753,36
47.5939,30
47.6124,30
47.6310,44
47.6496,34
47.6682,38
47.6867,26
47.7053,26
47.7239,33
47.7425,31
47.7610,24
47.7796,36
47.7982,28
47.8168,34
47.8353,25
47.8539,26
47.8725,40
47.8911,34
47.9096,33
47.9282,33
47.9468,36
47.9654,32
47.9839,35
48.0025,34
48.0211,20
48.0397,31
48.0582,31
48.0768,34
48.0954,31
48.1140,27
48.1325,30
48.1511,34
48.1697,30
48.1883,38
48.2068,30
48.2254,30
48.2440,30
48.2626,39
48.2811,38
48.2997,34
48.3183,30
48.3369,39
48.3555,29
48.3740,26
48.3926,33
48.4112,26
48.4298,32
48.4483,30
48.4669,20
48.4855,16
48.5041,24
48.5226,29
48.5412,28
48.5598,36
48.5784,42
48.5969,36
48.6155,30
48.6341,31
48.6527,31
48.6712,30
48.6898,26
48.7084,36
48.7270,28
48.7455,30
48.7641,30
48.7827,31
48.8013,23
48.8198,39
48.8384,30
48.8570,38
48.8756,23
48.8941,34
48.9127,40
48.9313,36
48.9499,58
48.9684,59
48.9870,51
49.0056,39
49.0242,32
49.0427,37
49.0613,40
49.0799,57
49.0985,36
49.1171,47
49.1356,38
49.1542,26
49.1728,51
49.1914,28
49.2099,32
49.2285,34
49.2471,31
49.2657,34
49.2842,24
49.3028,27
49.3214,29
49.3400,38
49.3585,32
49.3771,29
49.3957,42
49.4143,36
49.4328,37
49.4514,31
49.4700,26
49.4886,33
49.5071,28
49.5257,34
49.5443,38
49.5629,35
49.5814,27
49.6000,38
49.6186,27
49.6372,24
49.6557,30
49.6743,29
49.6929,37
49.7115,33
49.7300,34
49.7486,31
49.7672,31
49.7858,29
49.8043,33
49.8229,31
49.8415,32
49.8601,23
49.8786,29
49.8972,27
49.9158,19
49.9344,27
49.9530,28
49.9715,33
49.9901,33
50.0087,35
50.0273,37
50.0458,35
50.0644,36
50.0830,29
50.1016,27
50.1201,43
50.1387,24
50.1573,26
50.1759,28
50.1944,44
50.2130,30
50.2316,41
50.2502,35
50.2687,30
50.2873,27
50.3059,27
50.3245,28
50.3430,27
50.3616,21
50.3802,33
50.3988,39
50.4173,31
50.4359,30
50.4545,28
50.4731,34
50.4916,29
50.5102,29
50.5288,33
50.5474,21
50.5659,31
50.5845,25
50.6031,32
50.6217,32
50.6402,26
50.6588,30
50.6774,31
50.6960,37
50.7146,27
50.7331,34
50.7517,36
50.7703,29
50.7889,22
50.8074,34
50.8260,27
50.8446,41
50.8632,33
50.8817,26
50.9003,23
50.9189,26
50.9375,20
50.9560,35
50.9746,36
50.9932,31
51.0118,30
51.0303,28
51.0489,28
51.0675,27
51.0861,24
51.1046,35
51.1232,22
51.1418,31
51.1604,26
51.1789,32
51.1975,22
51.2161,33
51.2347,29
51.2532,30
51.2718,29
51.2904,31
51.3090,30
51.3275,33
51.3461,23
51.3647,23
51.3833,31
51.4018,34
51.4204,27
51.4390,30
51.4576,27
51.4762,30
51.4947,38
51.5133,34
51.5319,38
51.5505,26
51.5690,36
51.5876,25
51.6062,39
51.6248,41
51.6433,33
51.6619,30
51.6805,30
51.6991,39
51.7176,26
51.7362,28
51.7548,39
51.7734,24
51.7919,34
51.8105,33
51.8291,27
51.8477,42
51.8662,22
51.8848,28
51.9034,35
51.9220,25
51.9405,31
51.9591,30
51.9777,49
51.9963,28
52.0148,31
52.0334,37
52.0520,37
52.0706,38
52.0891,42
52.1077,26
52.1263,28
52.1449,26
52.1634,22
52.1820,32
52.2006,36
52.2192,20
52.2378,30
52.2563,34
52.2749,22
52.2935,32
52.3121,38
52.3306,38
52.3492,30
52.3678,30
52.3864,18
52.4049,35
52.4235,27
52.4421,34
52.4607,22
52.4792,31
52.4978,29
52.5164,24
52.5350,32
52.5535,28
52.5721,27
52.5907,30
52.6093,21
52.6278,25
52.6464,26
52.6650,24
52.6836,26
52.7021,27
52.7207,27
52.7393,27
52.7579,25
52.7764,26
52.7950,33
52.8136,26
52.8322,28
52.8507,27
52.8693,23
52.8879,24
52.9065,20
52.9250,38
52.9436,26
52.9622,27
52.9808,25
52.9994,38
53.0179,27
53.0365,29
53.0551,39
53.0737,37
53.0922,35
53.1108,33
53.1294,27
53.1480,37
53.1665,31
53.1851,23
53.2037,27
53.2223,29
53.2408,31
53.2594,28
53.2780,34
53.2966,23
53.3151,37
53.3337,33
53.3523,34
53.3709,20
53.3894,26
53.4080,28
53.4266,19
53.4452,27
53.4637,26
53.4823,28
53.5009,22
53.5195,27
53.5380,23
53.5566,32
53.5752,17
53.5938,32
53.6123,19
53.6309,23
53.6495,27
53.6681,31
53.6866,34
53.7052,23
53.7238,19
53.7424,30
53.7610,19
53.7795,38
53.7981,21
53.8167,32
53.8353,24
53.8538,28
53.8724,25
53.8910,39
53.9096,32
53.9281,25
53.9467,32
53.9653,43
53.9839,47
54.0024,45
54.0210,44
54.0396,26
54.0582,28
54.0767,42
54.0953,30
54.1139,25
54.1325,30
54.1510,34
54.1696,30
54.1882,30
54.2068,23
54.2253,26
54.2439,33
54.2625,34
54.2811,26
54.2996,32
54.3182,31
54.3368,29
54.3554,27
54.3739,35
54.3925,26
54.4111,27
54.4297,31
54.4482,35
54.4668,25
54.4854,29
54.5040,33
54.5225,21
54.5411,31
54.5597,33
54.5783,27
54.5969,34
54.6154,16
54.6340,27
54.6526,31
54.6712,25
54.6897,31
54.7083,29
54.7269,26
54.7455,27
54.7640,34
54.7826,24
54.8012,38
54.8198,39
54.8383,30
54.8569,19
54.8755,26
54.8941,21
54.9126,23
54.9312,35
54.9498,22
54.9684,19
54.9869,33
55.0055,34
55.0241,27
55.0427,25
55.0612,33
55.0798,27
55.0984,31
55.1170,31
55.1355,40
55.1541,25
55.1727,35
55.1913,26
55.2098,37
55.2284,23
55.2470,21
55.2656,27
55.2841,36
55.3027,20
55.3213,22
55.3399,17
55.3585,25
55.3770,28
55.3956,30
55.4142,34
55.4328,25
55.4513,21
55.4699,24
55.4885,29
55.5071,27
55.5256,21
55.5442,31
55.5628,29
55.5814,33
55.5999,29
55.6185,23
55.6371,25
55.6557,30
55.6742,25
55.6928,22
55.7114,20
55.7300,33
55.7485,20
55.7671,30
55.7857,21
55.8043,31
55.8228,22
55.8414,35
55.8600,32
55.8786,21
55.8971,34
55.9157,29
55.9343,28
55.9529,34
55.9714,26
55.9900,25
56.0086,29
56.0272,24
56.0457,21
56.0643,21
56.0829,29
56.1015,24
56.1201,31
56.1386,42
56.1572,29
56.1758,34
56.1944,30
56.2129,28
56.2315,35
56.2501,31
56.2687,29
56.2872,33
56.3058,37
56.3244,32
56.3430,34
56.3615,37
56.3801,34
56.3987,25
56.4173,22
56.4358,28
56.4544,25
56.4730,25
56.4916,40
56.5101,31
56.5287,36
56.5473,32
56.5659,22
56.5844,33
56.6030,33
56.6216,26
56.6402,34
56.6587,31
56.6773,39
56.6959,33
56.7145,28
56.7330,21
56.7516,30
56.7702,29
56.7888,31
56.8073,31
56.8259,21
56.8445,25
56.8631,28
56.8817,40
56.9002,23
56.9188,34
56.9374,32
56.9560,30
56.9745,29
56.9931,24
57.0117,29
57.0303,24
57.0488,20
57.0674,33
57.0860,19
57.1046,31
57.1231,28
57.1417,23
57.1603,24
57.1789,18
57.1974,30
57.2160,34
57.2346,29
57.2532,27
57.2717,34
57.2903,29
57.3089,33
57.3275,24
57.3460,34
57.3646,27
57.3832,29
57.4018,24
57.4203,26
57.4389,33
57.4575,28
57.4761,29
57.4946,28
57.5132,34
57.5318,18
57.5504,24
57.5689,23
57.5875,35
57.6061,23
57.6247,27
57.6433,29
57.6618,25
57.6804,32
57.6990,33
57.7176,26
57.7361,28
57.7547,33
57.7733,32
57.7919,23
57.8104,27
57.8290,21
57.8476,18
57.8662,31
57.8847,30
57.9033,24
57.9219,27
57.9405,29
57.9590,21
57.9776,25
57.9962,27
58.0148,19
58.0333,24
58.0519,35
58.0705,29
58.0891,30
58.1076,22
58.1262,31
58.1448,30
58.1634,26
58.1819,32
58.2005,21
58.2191,23
58.2377,35
58.2562,32
58.2748,23
58.2934,30
58.3120,32
58.3305,28
58.3491,25
58.3677,23
58.3863,22
58.4049,25
58.4234,25
58.4420,32
58.4606,28
58.4792,27
58.4977,27
58.5163,31
58.5349,24
58.5535,29
58.5720,31
58.5906,20
58.6092,39
58.6278,28
58.6463,27
58.6649,24
58.6835,26
58.7021,27
58.7206,24
58.7392,22
58.7578,32
58.7764,18
58.7949,19
58.8135,38
58.8321,18
58.8507,22
58.8692,24
58.8878,24
58.9064,23
58.9250,26
58.9435,35
58.9621,28
58.9807,27
58.9993,26
59.0178,27
59.0364,28
59.0550,23
59.0736,30
59.0921,27
59.1107,31
59.1293,26
59.1479,31
59.1664,34
59.1850,27
59.2036,29
59.2222,18
59.2408,33
59.2593,36
59.2779,23
59.2965,25
59.3151,26
59.3336,30
59.3522,27
59.3708,25
59.3894,21
59.4079,35
59.4265,30
59.4451,28
59.4637,29
59.4822,24
59.5008,21
59.5194,30
59.5380,33
59.5565,26
59.5751,30
59.5937,29
59.6123,24
59.6308,25
59.6494,30
59.6680,34
59.6866,25
59.7051,24
59.7237,21
59.7423,24
59.7609,24
59.7794,33
59.7980,26
59.8166,26
59.8352,26
59.8537,22
59.8723,24
59.8909,28
59.9095,27
59.9280,24
59.9466,18
59.9652,24
59.9838,39
60.0024,23
