; (content of file Y:\Sam\Apurva-07-20-2022\puck4\ML_20220718_1_SJD_0_LaB6-1min.raw)
_FILEVERSION = 3
_SAMPLE = ML_20220718_1_SJD_0_LaB6-1mi
_+SAMPLE = 
_SITE = USA
_USER = Administrator
_GONIOMETER_CODE = 20
; Goniometer : D8 theta/2theta, stage : Unknown
_ATTACHMENTS_CODE = 0
_GONIOMETER_RADIUS = 200.5
_FIXED_DIVSLIT = 0.6
_FIXED_SAMPLESLIT = 0
_SOLLER_SLITS = 2
_FIXED_DETSLIT = 9.55
_MONOCHROMATOR = 0
; Incident beam monochromator : None
_SOLLER_SLITS_2 = N
_THIN_FILM = N
_BETA_FILTER = Y
_FIXED_ANTISLIT = 5.89
_ANALYZER_CODE = 0
; Received beam analyzer : None
_DATEMEASURED = "21-Jul-2022 03:00:33"
_WL_UNIT = A
_WL1 = 1.5406
_WL2 = 1.54439
_WL3 = 1.39222
_WLRATIO = 0.5
_ANODE = Cu
_V4_INF_CREATOR = XRDWizard
_V4_INF_CREATOR_VERSION = V2.9.0.22
_V4_INF_WIZARD_VERSION = V2.9.0.22
_V4_INF_WIZARD_ADDINS = V2.9.0.22
_V4_INF_WIZARD_DOCTYPE = XRD
_V4_INF_OSUSER = McQueenLab
_V4_INF_USER = Administrator
_V4_INF_SITE = USA
_V4_INF_SAMPLEID = ML_20220718_1_SJD_0_LaB6-1mi

; Data for range 1
_DRIVE = COUPLED
_STEPTIME = 4.23
_STEPSIZE = 0.0185756
_STEPMODE = C
_START = 5
_THETA = 2.5
_2THETA = 5
_KHI = 0
_PHI = 0
_X = 0
_Y = 0
_Z = 0
_DETECTOR = 5
; Detector type : Unknown
_DETECTORSLIT = unkn
_AUX1 = 0
_AUX2 = 0
_AUX3 = 0
_TIMESTARTED = 15
_TEMP_RATE = -1
_TEMP_DELAY = -1
_KV = 40
_MA = 40
_RANGE_WL = 1.5406
_3DPLANE = 0
_V4_ADDITIONALDETECTOR = 257
_V4_PSD2THETA = 3.4374
_V4_PSDCHANNEL1 = 0
_V4_PSDAPERTURE = 12.68
_V4_PSDTYPE = 5
_V4_PSDFIXED = 0
_V4_COUNTERS_MASK = 4096
_V4_DRIVES_MASK = 0
_V4_ENCODERS_MASK = 0
_2THETACOUNTS = 1
; 2THETA  PSD
   5.0000         97
   5.0186         82
   5.0372        110
   5.0557         88
   5.0743         90
   5.0929         80
   5.1115         93
   5.1300         82
   5.1486         74
   5.1672         91
   5.1858        102
   5.2043         82
   5.2229         86
   5.2415         85
   5.2601         88
   5.2786        100
   5.2972         79
   5.3158         85
   5.3344         83
   5.3529         76
   5.3715         72
   5.3901         90
   5.4087         91
   5.4272         81
   5.4458         83
   5.4644         93
   5.4830         70
   5.5015         76
   5.5201         76
   5.5387         83
   5.5573         63
   5.5758         76
   5.5944         69
   5.6130         80
   5.6316         78
   5.6501         85
   5.6687         74
   5.6873         81
   5.7059         83
   5.7244         78
   5.7430         74
   5.7616         72
   5.7802         81
   5.7988         76
   5.8173         72
   5.8359         87
   5.8545         75
   5.8731         80
   5.8916         81
   5.9102         76
   5.9288         60
   5.9474         76
   5.9659         55
   5.9845         70
   6.0031         55
   6.0217         71
   6.0402         81
   6.0588         67
   6.0774         68
   6.0960         68
   6.1145         82
   6.1331         75
   6.1517         67
   6.1703         72
   6.1888         62
   6.2074         69
   6.2260         74
   6.2446         48
   6.2631         64
   6.2817         59
   6.3003         55
   6.3189         58
   6.3374         70
   6.3560         56
   6.3746         67
   6.3932         70
   6.4117         67
   6.4303         70
   6.4489         72
   6.4675         68
   6.4860         57
   6.5046         59
   6.5232         60
   6.5418         76
   6.5604         63
   6.5789         63
   6.5975         59
   6.6161         65
   6.6347         64
   6.6532         74
   6.6718         62
   6.6904         70
   6.7090         53
   6.7275         56
   6.7461         47
   6.7647         66
   6.7833         56
   6.8018         69
   6.8204         66
   6.8390         61
   6.8576         61
   6.8761         57
   6.8947         65
   6.9133         50
   6.9319         59
   6.9504         62
   6.9690         72
   6.9876         54
   7.0062         70
   7.0247         67
   7.0433         59
   7.0619         52
   7.0805         61
   7.0990         57
   7.1176         59
   7.1362         54
   7.1548         67
   7.1733         54
   7.1919         34
   7.2105         52
   7.2291         57
   7.2476         55
   7.2662         61
   7.2848         66
   7.3034         41
   7.3220         56
   7.3405         55
   7.3591         56
   7.3777         47
   7.3963         64
   7.4148         63
   7.4334         70
   7.4520         64
   7.4706         62
   7.4891         58
   7.5077         66
   7.5263         63
   7.5449         62
   7.5634         63
   7.5820         62
   7.6006         50
   7.6192         53
   7.6377         72
   7.6563         56
   7.6749         69
   7.6935         48
   7.7120         75
   7.7306         74
   7.7492         71
   7.7678         58
   7.7863         63
   7.8049         53
   7.8235         66
   7.8421         62
   7.8606         55
   7.8792         54
   7.8978         55
   7.9164         66
   7.9349         68
   7.9535         51
   7.9721         65
   7.9907         64
   8.0092         68
   8.0278         57
   8.0464         77
   8.0650         58
   8.0835         53
   8.1021         63
   8.1207         85
   8.1393         66
   8.1579         74
   8.1764         73
   8.1950         54
   8.2136         70
   8.2322         79
   8.2507         58
   8.2693         72
   8.2879         71
   8.3065         77
   8.3250         80
   8.3436         80
   8.3622         73
   8.3808         68
   8.3993         64
   8.4179         72
   8.4365         64
   8.4551         72
   8.4736         69
   8.4922         58
   8.5108         68
   8.5294         73
   8.5479         72
   8.5665         66
   8.5851         73
   8.6037         85
   8.6222         75
   8.6408         72
   8.6594         69
   8.6780         61
   8.6965         75
   8.7151         61
   8.7337         59
   8.7523         89
   8.7708         58
   8.7894         76
   8.8080         66
   8.8266         89
   8.8451         87
   8.8637         59
   8.8823         69
   8.9009         75
   8.9195         82
   8.9380         74
   8.9566         79
   8.9752         78
   8.9938         79
   9.0123         77
   9.0309         83
   9.0495         73
   9.0681         78
   9.0866         68
   9.1052         69
   9.1238         85
   9.1424         78
   9.1609         68
   9.1795         66
   9.1981         81
   9.2167         84
   9.2352         81
   9.2538         72
   9.2724         71
   9.2910         70
   9.3095         78
   9.3281         78
   9.3467         81
   9.3653         82
   9.3838         78
   9.4024         88
   9.4210         80
   9.4396         83
   9.4581        101
   9.4767         76
   9.4953         85
   9.5139         62
   9.5324         86
   9.5510         78
   9.5696         66
   9.5882         82
   9.6067         77
   9.6253         73
   9.6439         55
   9.6625         80
   9.6811         83
   9.6996         97
   9.7182         94
   9.7368         86
   9.7554         89
   9.7739         78
   9.7925         76
   9.8111         84
   9.8297         80
   9.8482         84
   9.8668         86
   9.8854         83
   9.9040         91
   9.9225         92
   9.9411         89
   9.9597         72
   9.9783        109
   9.9968         81
  10.0154         81
  10.0340         93
  10.0526         92
  10.0711         74
  10.0897        115
  10.1083         71
  10.1269         80
  10.1454         94
  10.1640         89
  10.1826         89
  10.2012         90
  10.2197         81
  10.2383         71
  10.2569         93
  10.2755         71
  10.2940         74
  10.3126         83
  10.3312         90
  10.3498         94
  10.3683        100
  10.3869         80
  10.4055         86
  10.4241         76
  10.4427         82
  10.4612         88
  10.4798         88
  10.4984        104
  10.5170         86
  10.5355         84
  10.5541         94
  10.5727         72
  10.5913         88
  10.6098         89
  10.6284         80
  10.6470         94
  10.6656         67
  10.6841        101
  10.7027         91
  10.7213         80
  10.7399        100
  10.7584         87
  10.7770         89
  10.7956         87
  10.8142        101
  10.8327         88
  10.8513         88
  10.8699         85
  10.8885         85
  10.9070         81
  10.9256         81
  10.9442         73
  10.9628         95
  10.9813         95
  10.9999         62
  11.0185         75
  11.0371         76
  11.0556         96
  11.0742         85
  11.0928         85
  11.1114        108
  11.1299         78
  11.1485         83
  11.1671         73
  11.1857         94
  11.2043         89
  11.2228         98
  11.2414         75
  11.2600         78
  11.2786         87
  11.2971         76
  11.3157         70
  11.3343         78
  11.3529         76
  11.3714         71
  11.3900         79
  11.4086         89
  11.4272         92
  11.4457         76
  11.4643         89
  11.4829         91
  11.5015         82
  11.5200         86
  11.5386         90
  11.5572         77
  11.5758         95
  11.5943         86
  11.6129         86
  11.6315         83
  11.6501         88
  11.6686         79
  11.6872         71
  11.7058        105
  11.7244        100
  11.7429         90
  11.7615         75
  11.7801         74
  11.7987         74
  11.8172         84
  11.8358         98
  11.8544         81
  11.8730         95
  11.8915         84
  11.9101         82
  11.9287         88
  11.9473         86
  11.9659        100
  11.9844         80
  12.0030         84
  12.0216         70
  12.0402         85
  12.0587        102
  12.0773         83
  12.0959         78
  12.1145         65
  12.1330         87
  12.1516         93
  12.1702         74
  12.1888         75
  12.2073         82
  12.2259         62
  12.2445         86
  12.2631         79
  12.2816         69
  12.3002         71
  12.3188         77
  12.3374         85
  12.3559         83
  12.3745         78
  12.3931         75
  12.4117         58
  12.4302         59
  12.4488         74
  12.4674         88
  12.4860         73
  12.5045         78
  12.5231         61
  12.5417         70
  12.5603         79
  12.5788         75
  12.5974         81
  12.6160         78
  12.6346         67
  12.6531         77
  12.6717         78
  12.6903         74
  12.7089         69
  12.7274         80
  12.7460         64
  12.7646         72
  12.7832         71
  12.8018         76
  12.8203         84
  12.8389         67
  12.8575         73
  12.8761         83
  12.8946         87
  12.9132         68
  12.9318         70
  12.9504         74
  12.9689         82
  12.9875         78
  13.0061         76
  13.0247         79
  13.0432         67
  13.0618         74
  13.0804         76
  13.0990         82
  13.1175         66
  13.1361         59
  13.1547         72
  13.1733         68
  13.1918         88
  13.2104         69
  13.2290         78
  13.2476         75
  13.2661         63
  13.2847         72
  13.3033         60
  13.3219         73
  13.3404         66
  13.3590         67
  13.3776         70
  13.3962         60
  13.4147         76
  13.4333         69
  13.4519         82
  13.4705         71
  13.4890         53
  13.5076         62
  13.5262         70
  13.5448         74
  13.5634         57
  13.5819         57
  13.6005         57
  13.6191         74
  13.6377         68
  13.6562         64
  13.6748         57
  13.6934         68
  13.7120         68
  13.7305         64
  13.7491         67
  13.7677         72
  13.7863         76
  13.8048         68
  13.8234         58
  13.8420         63
  13.8606         67
  13.8791         62
  13.8977         52
  13.9163         56
  13.9349         59
  13.9534         75
  13.9720         61
  13.9906         41
  14.0092         61
  14.0277         74
  14.0463         56
  14.0649         65
  14.0835         52
  14.1020         67
  14.1206         58
  14.1392         50
  14.1578         60
  14.1763         71
  14.1949         58
  14.2135         66
  14.2321         53
  14.2506         45
  14.2692         56
  14.2878         76
  14.3064         63
  14.3250         64
  14.3435         71
  14.3621         66
  14.3807         61
  14.3993         71
  14.4178         64
  14.4364         58
  14.4550         55
  14.4736         65
  14.4921         59
  14.5107         68
  14.5293         63
  14.5479         59
  14.5664         52
  14.5850         61
  14.6036         72
  14.6222         49
  14.6407         70
  14.6593         39
  14.6779         56
  14.6965         67
  14.7150         67
  14.7336         58
  14.7522         66
  14.7708         71
  14.7893         47
  14.8079         74
  14.8265         70
  14.8451         57
  14.8636         69
  14.8822         77
  14.9008         67
  14.9194         67
  14.9379         66
  14.9565         68
  14.9751         64
  14.9937         57
  15.0122         61
  15.0308         78
  15.0494         58
  15.0680         62
  15.0866         53
  15.1051         58
  15.1237         55
  15.1423         59
  15.1609         64
  15.1794         54
  15.1980         67
  15.2166         60
  15.2352         62
  15.2537         67
  15.2723         54
  15.2909         58
  15.3095         57
  15.3280         62
  15.3466         47
  15.3652         51
  15.3838         59
  15.4023         47
  15.4209         69
  15.4395         65
  15.4581         63
  15.4766         62
  15.4952         52
  15.5138         42
  15.5324         58
  15.5509         69
  15.5695         56
  15.5881         71
  15.6067         50
  15.6252         65
  15.6438         61
  15.6624         61
  15.6810         52
  15.6995         64
  15.7181         56
  15.7367         58
  15.7553         69
  15.7738         51
  15.7924         54
  15.8110         61
  15.8296         48
  15.8482         63
  15.8667         67
  15.8853         68
  15.9039         57
  15.9225         52
  15.9410         53
  15.9596         68
  15.9782         51
  15.9968         66
  16.0153         83
  16.0339         65
  16.0525         59
  16.0711         67
  16.0896         69
  16.1082         57
  16.1268         70
  16.1454         57
  16.1639         56
  16.1825         62
  16.2011         56
  16.2197         70
  16.2382         64
  16.2568         65
  16.2754         58
  16.2940         63
  16.3125         65
  16.3311         57
  16.3497         58
  16.3683         62
  16.3868         55
  16.4054         47
  16.4240         62
  16.4426         58
  16.4611         62
  16.4797         68
  16.4983         64
  16.5169         70
  16.5354         75
  16.5540         62
  16.5726         63
  16.5912         71
  16.6097         67
  16.6283         57
  16.6469         51
  16.6655         55
  16.6841         54
  16.7026         69
  16.7212         65
  16.7398         50
  16.7584         51
  16.7769         61
  16.7955         57
  16.8141         55
  16.8327         49
  16.8512         64
  16.8698         64
  16.8884         71
  16.9070         70
  16.9255         60
  16.9441         73
  16.9627         58
  16.9813         50
  16.9998         65
  17.0184         57
  17.0370         48
  17.0556         59
  17.0741         66
  17.0927         54
  17.1113         62
  17.1299         41
  17.1484         50
  17.1670         67
  17.1856         49
  17.2042         55
  17.2227         67
  17.2413         45
  17.2599         63
  17.2785         64
  17.2970         67
  17.3156         45
  17.3342         48
  17.3528         60
  17.3713         55
  17.3899         67
  17.4085         59
  17.4271         53
  17.4457         47
  17.4642         60
  17.4828         59
  17.5014         45
  17.5200         58
  17.5385         56
  17.5571         60
  17.5757         62
  17.5943         55
  17.6128         60
  17.6314         51
  17.6500         52
  17.6686         56
  17.6871         65
  17.7057         60
  17.7243         49
  17.7429         70
  17.7614         59
  17.7800         48
  17.7986         55
  17.8172         54
  17.8357         52
  17.8543         48
  17.8729         57
  17.8915         65
  17.9100         52
  17.9286         62
  17.9472         63
  17.9658         55
  17.9843         63
  18.0029         72
  18.0215         71
  18.0401         59
  18.0586         60
  18.0772         66
  18.0958         65
  18.1144         61
  18.1329         45
  18.1515         49
  18.1701         58
  18.1887         72
  18.2073         51
  18.2258         53
  18.2444         69
  18.2630         64
  18.2816         50
  18.3001         59
  18.3187         56
  18.3373         60
  18.3559         46
  18.3744         72
  18.3930         63
  18.4116         71
  18.4302         54
  18.4487         64
  18.4673         64
  18.4859         76
  18.5045         61
  18.5230         54
  18.5416         67
  18.5602         64
  18.5788         62
  18.5973         59
  18.6159         54
  18.6345         62
  18.6531         54
  18.6716         51
  18.6902         57
  18.7088         57
  18.7274         66
  18.7459         57
  18.7645         63
  18.7831         63
  18.8017         70
  18.8202         67
  18.8388         63
  18.8574         55
  18.8760         68
  18.8945         59
  18.9131         60
  18.9317         53
  18.9503         65
  18.9689         50
  18.9874         60
  19.0060         48
  19.0246         65
  19.0432         60
  19.0617         49
  19.0803         58
  19.0989         60
  19.1175         41
  19.1360         60
  19.1546         72
  19.1732         63
  19.1918         66
  19.2103         66
  19.2289         63
  19.2475         53
  19.2661         57
  19.2846         64
  19.3032         71
  19.3218         65
  19.3404         60
  19.3589         64
  19.3775         61
  19.3961         75
  19.4147         62
  19.4332         75
  19.4518         63
  19.4704         65
  19.4890         72
  19.5075         61
  19.5261         67
  19.5447         62
  19.5633         62
  19.5818         59
  19.6004         56
  19.6190         75
  19.6376         60
  19.6561         66
  19.6747         63
  19.6933         62
  19.7119         59
  19.7305         52
  19.7490         62
  19.7676         67
  19.7862         71
  19.8048         56
  19.8233         53
  19.8419         55
  19.8605         67
  19.8791         73
  19.8976         62
  19.9162         69
  19.9348         73
  19.9534         75
  19.9719         71
  19.9905         70
  20.0091         54
  20.0277         68
  20.0462         58
  20.0648         60
  20.0834         58
  20.1020         58
  20.1205         59
  20.1391         51
  20.1577         58
  20.1763         75
  20.1948         65
  20.2134         65
  20.2320         71
  20.2506         62
  20.2691         55
  20.2877         66
  20.3063         57
  20.3249         65
  20.3434         55
  20.3620         62
  20.3806         60
  20.3992         77
  20.4177         65
  20.4363         66
  20.4549         70
  20.4735         72
  20.4921         56
  20.5106         44
  20.5292         61
  20.5478         55
  20.5664         68
  20.5849         57
  20.6035         54
  20.6221         78
  20.6407         65
  20.6592         56
  20.6778         69
  20.6964         54
  20.7150         78
  20.7335         65
  20.7521         68
  20.7707         74
  20.7893         85
  20.8078         52
  20.8264         80
  20.8450         56
  20.8636         71
  20.8821         70
  20.9007         67
  20.9193         62
  20.9379         49
  20.9564         69
  20.9750         68
  20.9936         70
  21.0122         83
  21.0307         58
  21.0493         80
  21.0679         50
  21.0865         75
  21.1050         67
  21.1236         93
  21.1422         83
  21.1608         81
  21.1793         93
  21.1979        116
  21.2165        133
  21.2351        108
  21.2537        127
  21.2722        136
  21.2908        116
  21.3094        138
  21.3280        192
  21.3465        189
  21.3651        119
  21.3837        127
  21.4023        114
  21.4208         88
  21.4394         90
  21.4580         73
  21.4766         59
  21.4951         74
  21.5137         66
  21.5323         78
  21.5509         70
  21.5694         67
  21.5880         76
  21.6066         70
  21.6252         78
  21.6437         71
  21.6623         77
  21.6809         68
  21.6995         61
  21.7180         70
  21.7366         56
  21.7552         73
  21.7738         69
  21.7923         57
  21.8109         73
  21.8295         70
  21.8481         72
  21.8666         94
  21.8852         75
  21.9038         56
  21.9224         67
  21.9409         59
  21.9595         64
  21.9781         62
  21.9967         77
  22.0152         78
  22.0338         67
  22.0524         54
  22.0710         71
  22.0896         76
  22.1081         89
  22.1267         73
  22.1453         58
  22.1639         66
  22.1824         80
  22.2010         59
  22.2196         71
  22.2382         77
  22.2567         60
  22.2753         78
  22.2939         62
  22.3125         71
  22.3310         66
  22.3496         73
  22.3682         83
  22.3868         72
  22.4053         81
  22.4239         58
  22.4425         65
  22.4611         64
  22.4796         74
  22.4982         70
  22.5168         77
  22.5354         68
  22.5539         65
  22.5725         65
  22.5911         89
  22.6097         66
  22.6282         65
  22.6468         67
  22.6654         66
  22.6840         60
  22.7025         65
  22.7211         77
  22.7397         66
  22.7583         79
  22.7768         57
  22.7954         64
  22.8140         88
  22.8326         77
  22.8512         65
  22.8697         58
  22.8883         59
  22.9069         67
  22.9255         70
  22.9440         71
  22.9626         73
  22.9812         74
  22.9998         69
  23.0183         83
  23.0369         65
  23.0555         71
  23.0741         77
  23.0926         73
  23.1112         62
  23.1298         54
  23.1484         59
  23.1669         73
  23.1855         80
  23.2041         76
  23.2227         69
  23.2412         59
  23.2598         66
  23.2784         72
  23.2970         69
  23.3155         67
  23.3341         73
  23.3527         67
  23.3713         76
  23.3898         70
  23.4084         76
  23.4270         86
  23.4456         84
  23.4641         78
  23.4827         64
  23.5013         74
  23.5199         69
  23.5384         81
  23.5570         70
  23.5756         81
  23.5942         74
  23.6128         85
  23.6313         77
  23.6499         71
  23.6685         58
  23.6871         67
  23.7056         89
  23.7242         67
  23.7428         63
  23.7614         72
  23.7799         62
  23.7985         67
  23.8171         69
  23.8357         71
  23.8542         69
  23.8728         74
  23.8914         86
  23.9100         76
  23.9285         56
  23.9471         82
  23.9657         75
  23.9843         69
  24.0028         63
  24.0214         84
  24.0400         61
  24.0586         71
  24.0771         64
  24.0957         82
  24.1143         73
  24.1329         77
  24.1514         79
  24.1700         75
  24.1886         69
  24.2072         92
  24.2257         81
  24.2443         81
  24.2629         94
  24.2815         87
  24.3000         91
  24.3186         81
  24.3372         87
  24.3558         71
  24.3744         50
  24.3929         70
  24.4115         80
  24.4301         83
  24.4487         70
  24.4672         73
  24.4858         73
  24.5044         72
  24.5230         67
  24.5415         80
  24.5601         73
  24.5787         60
  24.5973         69
  24.6158         65
  24.6344         59
  24.6530         74
  24.6716         65
  24.6901         68
  24.7087         68
  24.7273         71
  24.7459         71
  24.7644         76
  24.7830         64
  24.8016         70
  24.8202         62
  24.8387         80
  24.8573         85
  24.8759         71
  24.8945         68
  24.9130         59
  24.9316         66
  24.9502         78
  24.9688         70
  24.9873         67
  25.0059         77
  25.0245         65
  25.0431         84
  25.0616         81
  25.0802         79
  25.0988         66
  25.1174         71
  25.1360         62
  25.1545         77
  25.1731         72
  25.1917         73
  25.2103         74
  25.2288         75
  25.2474         73
  25.2660         68
  25.2846         60
  25.3031         77
  25.3217         66
  25.3403         67
  25.3589         72
  25.3774         61
  25.3960         73
  25.4146         70
  25.4332         54
  25.4517         65
  25.4703         81
  25.4889         68
  25.5075         67
  25.5260         80
  25.5446         62
  25.5632         68
  25.5818         65
  25.6003         66
  25.6189         74
  25.6375         80
  25.6561         77
  25.6746         76
  25.6932         88
  25.7118         64
  25.7304         68
  25.7489         66
  25.7675         62
  25.7861         76
  25.8047         80
  25.8232         72
  25.8418         60
  25.8604         69
  25.8790         60
  25.8976         77
  25.9161         60
  25.9347         65
  25.9533         79
  25.9719         71
  25.9904         79
  26.0090         65
  26.0276         69
  26.0462         71
  26.0647         77
  26.0833         54
  26.1019         69
  26.1205         62
  26.1390         75
  26.1576         75
  26.1762         75
  26.1948         69
  26.2133         66
  26.2319         68
  26.2505         70
  26.2691         74
  26.2876         68
  26.3062         64
  26.3248         63
  26.3434         74
  26.3619         67
  26.3805         70
  26.3991         65
  26.4177         68
  26.4362         68
  26.4548         69
  26.4734         72
  26.4920         60
  26.5105         57
  26.5291         55
  26.5477         76
  26.5663         66
  26.5848         72
  26.6034         67
  26.6220         70
  26.6406         63
  26.6591         73
  26.6777         78
  26.6963         73
  26.7149         67
  26.7335         69
  26.7520         58
  26.7706         68
  26.7892         74
  26.8078         66
  26.8263         65
  26.8449         67
  26.8635         68
  26.8821         59
  26.9006         58
  26.9192         59
  26.9378         69
  26.9564         75
  26.9749         84
  26.9935         63
  27.0121         63
  27.0307         58
  27.0492         72
  27.0678         69
  27.0864         83
  27.1050         73
  27.1235         85
  27.1421         84
  27.1607         81
  27.1793         90
  27.1978         95
  27.2164         86
  27.2350         83
  27.2536         79
  27.2721         99
  27.2907         75
  27.3093         65
  27.3279         65
  27.3464         74
  27.3650         66
  27.3836         76
  27.4022         66
  27.4207         71
  27.4393         61
  27.4579         67
  27.4765         63
  27.4951         64
  27.5136         61
  27.5322         49
  27.5508         69
  27.5694         64
  27.5879         68
  27.6065         54
  27.6251         72
  27.6437         59
  27.6622         69
  27.6808         64
  27.6994         59
  27.7180         75
  27.7365         55
  27.7551         54
  27.7737         58
  27.7923         54
  27.8108         67
  27.8294         66
  27.8480         63
  27.8666         57
  27.8851         69
  27.9037         73
  27.9223         62
  27.9409         50
  27.9594         71
  27.9780         69
  27.9966         64
  28.0152         83
  28.0337         67
  28.0523         71
  28.0709         62
  28.0895         68
  28.1080         56
  28.1266         56
  28.1452         63
  28.1638         61
  28.1823         74
  28.2009         54
  28.2195         66
  28.2381         61
  28.2567         71
  28.2752         56
  28.2938         64
  28.3124         53
  28.3310         55
  28.3495         73
  28.3681         54
  28.3867         69
  28.4053         59
  28.4238         78
  28.4424         51
  28.4610         78
  28.4796         52
  28.4981         67
  28.5167         58
  28.5353         52
  28.5539         66
  28.5724         56
  28.5910         43
  28.6096         54
  28.6282         64
  28.6467         55
  28.6653         58
  28.6839         64
  28.7025         62
  28.7210         74
  28.7396         55
  28.7582         51
  28.7768         60
  28.7953         49
  28.8139         46
  28.8325         46
  28.8511         63
  28.8696         54
  28.8882         64
  28.9068         40
  28.9254         68
  28.9439         54
  28.9625         52
  28.9811         59
  28.9997         62
  29.0183         63
  29.0368         66
  29.0554         47
  29.0740         62
  29.0926         59
  29.1111         55
  29.1297         70
  29.1483         53
  29.1669         68
  29.1854         70
  29.2040         62
  29.2226         54
  29.2412         62
  29.2597         66
  29.2783         68
  29.2969         60
  29.3155         52
  29.3340         47
  29.3526         53
  29.3712         63
  29.3898         54
  29.4083         53
  29.4269         50
  29.4455         63
  29.4641         64
  29.4826         65
  29.5012         65
  29.5198         51
  29.5384         60
  29.5569         69
  29.5755         70
  29.5941         51
  29.6127         63
  29.6312         53
  29.6498         63
  29.6684         55
  29.6870         68
  29.7055         55
  29.7241         56
  29.7427         70
  29.7613         51
  29.7799         56
  29.7984         55
  29.8170         40
  29.8356         51
  29.8542         56
  29.8727         60
  29.8913         64
  29.9099         65
  29.9285         43
  29.9470         56
  29.9656         65
  29.9842         52
  30.0028         53
  30.0213         49
  30.0399         68
  30.0585         65
  30.0771         72
  30.0956         51
  30.1142         57
  30.1328         58
  30.1514         64
  30.1699         45
  30.1885         55
  30.2071         58
  30.2257         61
  30.2442         80
  30.2628         61
  30.2814         53
  30.3000         83
  30.3185         70
  30.3371         83
  30.3557        121
  30.3743        109
  30.3928        105
  30.4114        100
  30.4300         95
  30.4486         74
  30.4671         65
  30.4857         55
  30.5043         62
  30.5229         60
  30.5415         57
  30.5600         54
  30.5786         60
  30.5972         64
  30.6158         61
  30.6343         60
  30.6529         55
  30.6715         72
  30.6901         72
  30.7086         62
  30.7272         60
  30.7458         63
  30.7644         52
  30.7829         56
  30.8015         53
  30.8201         49
  30.8387         58
  30.8572         55
  30.8758         53
  30.8944         59
  30.9130         46
  30.9315         42
  30.9501         50
  30.9687         47
  30.9873         51
  31.0058         54
  31.0244         42
  31.0430         39
  31.0616         57
  31.0801         39
  31.0987         60
  31.1173         60
  31.1359         46
  31.1544         58
  31.1730         56
  31.1916         53
  31.2102         52
  31.2287         45
  31.2473         55
  31.2659         61
  31.2845         36
  31.3030         45
  31.3216         59
  31.3402         65
  31.3588         43
  31.3774         38
  31.3959         54
  31.4145         53
  31.4331         38
  31.4517         53
  31.4702         52
  31.4888         39
  31.5074         53
  31.5260         41
  31.5445         44
  31.5631         63
  31.5817         47
  31.6003         45
  31.6188         42
  31.6374         39
  31.6560         43
  31.6746         50
  31.6931         41
  31.7117         49
  31.7303         44
  31.7489         40
  31.7674         51
  31.7860         36
  31.8046         54
  31.8232         32
  31.8417         40
  31.8603         38
  31.8789         45
  31.8975         44
  31.9160         50
  31.9346         52
  31.9532         46
  31.9718         53
  31.9903         41
  32.0089         52
  32.0275         37
  32.0461         55
  32.0646         61
  32.0832         46
  32.1018         47
  32.1204         44
  32.1390         32
  32.1575         44
  32.1761         45
  32.1947         49
  32.2133         59
  32.2318         57
  32.2504         53
  32.2690         54
  32.2876         50
  32.3061         51
  32.3247         28
  32.3433         45
  32.3619         54
  32.3804         57
  32.3990         49
  32.4176         55
  32.4362         59
  32.4547         57
  32.4733         76
  32.4919         56
  32.5105         58
  32.5290         43
  32.5476         40
  32.5662         51
  32.5848         51
  32.6033         52
  32.6219         47
  32.6405         58
  32.6591         47
  32.6776         47
  32.6962         57
  32.7148         42
  32.7334         48
  32.7519         41
  32.7705         41
  32.7891         44
  32.8077         48
  32.8262         45
  32.8448         39
  32.8634         57
  32.8820         33
  32.9006         47
  32.9191         35
  32.9377         46
  32.9563         43
  32.9749         43
  32.9934         48
  33.0120         48
  33.0306         47
  33.0492         61
  33.0677         48
  33.0863         44
  33.1049         49
  33.1235         49
  33.1420         59
  33.1606         47
  33.1792         37
  33.1978         30
  33.2163         42
  33.2349         38
  33.2535         33
  33.2721         39
  33.2906         38
  33.3092         35
  33.3278         40
  33.3464         37
  33.3649         40
  33.3835         40
  33.4021         54
  33.4207         45
  33.4392         45
  33.4578         51
  33.4764         48
  33.4950         46
  33.5135         36
  33.5321         42
  33.5507         39
  33.5693         48
  33.5878         41
  33.6064         48
  33.6250         36
  33.6436         62
  33.6622         43
  33.6807         45
  33.6993         40
  33.7179         40
  33.7365         51
  33.7550         53
  33.7736         35
  33.7922         48
  33.8108         26
  33.8293         47
  33.8479         27
  33.8665         32
  33.8851         35
  33.9036         33
  33.9222         39
  33.9408         49
  33.9594         38
  33.9779         40
  33.9965         33
  34.0151         34
  34.0337         48
  34.0522         37
  34.0708         38
  34.0894         29
  34.1080         35
  34.1265         42
  34.1451         31
  34.1637         27
  34.1823         33
  34.2008         38
  34.2194         48
  34.2380         40
  34.2566         49
  34.2751         40
  34.2937         40
  34.3123         42
  34.3309         40
  34.3494         44
  34.3680         40
  34.3866         40
  34.4052         39
  34.4238         36
  34.4423         31
  34.4609         38
  34.4795         41
  34.4981         57
  34.5166         38
  34.5352         44
  34.5538         52
  34.5724         49
  34.5909         54
  34.6095         47
  34.6281         42
  34.6467         50
  34.6652         49
  34.6838         56
  34.7024         44
  34.7210         60
  34.7395         56
  34.7581         57
  34.7767         56
  34.7953         63
  34.8138         39
  34.8324         45
  34.8510         46
  34.8696         47
  34.8881         39
  34.9067         42
  34.9253         46
  34.9439         50
  34.9624         40
  34.9810         26
  34.9996         32
  35.0182         40
  35.0367         37
  35.0553         33
  35.0739         49
  35.0925         37
  35.1110         59
  35.1296         32
  35.1482         22
  35.1668         34
  35.1854         43
  35.2039         46
  35.2225         25
  35.2411         39
  35.2597         44
  35.2782         45
  35.2968         25
  35.3154         33
  35.3340         46
  35.3525         44
  35.3711         30
  35.3897         42
  35.4083         43
  35.4268         33
  35.4454         33
  35.4640         37
  35.4826         27
  35.5011         40
  35.5197         29
  35.5383         33
  35.5569         40
  35.5754         38
  35.5940         32
  35.6126         36
  35.6312         33
  35.6497         41
  35.6683         46
  35.6869         27
  35.7055         44
  35.7240         49
  35.7426         27
  35.7612         35
  35.7798         30
  35.7983         39
  35.8169         39
  35.8355         31
  35.8541         28
  35.8726         31
  35.8912         36
  35.9098         35
  35.9284         39
  35.9469         38
  35.9655         35
  35.9841         42
  36.0027         33
  36.0213         41
  36.0398         36
  36.0584         32
  36.0770         40
  36.0956         41
  36.1141         41
  36.1327         36
  36.1513         38
  36.1699         37
  36.1884         33
  36.2070         31
  36.2256         31
  36.2442         41
  36.2627         34
  36.2813         27
  36.2999         34
  36.3185         24
  36.3370         43
  36.3556         38
  36.3742         41
  36.3928         39
  36.4113         25
  36.4299         34
  36.4485         34
  36.4671         33
  36.4856         39
  36.5042         35
  36.5228         38
  36.5414         29
  36.5599         38
  36.5785         33
  36.5971         25
  36.6157         37
  36.6342         34
  36.6528         34
  36.6714         35
  36.6900         38
  36.7085         28
  36.7271         33
  36.7457         36
  36.7643         26
  36.7829         29
  36.8014         42
  36.8200         35
  36.8386         43
  36.8572         34
  36.8757         34
  36.8943         38
  36.9129         37
  36.9315         35
  36.9500         28
  36.9686         33
  36.9872         35
  37.0058         34
  37.0243         32
  37.0429         32
  37.0615         22
  37.0801         38
  37.0986         35
  37.1172         39
  37.1358         35
  37.1544         31
  37.1729         29
  37.1915         35
  37.2101         32
  37.2287         32
  37.2472         29
  37.2658         34
  37.2844         36
  37.3030         28
  37.3215         30
  37.3401         39
  37.3587         28
  37.3773         46
  37.3958         50
  37.4144         64
  37.4330         54
  37.4516         45
  37.4701         40
  37.4887         38
  37.5073         36
  37.5259         39
  37.5445         31
  37.5630         28
  37.5816         36
  37.6002         40
  37.6188         30
  37.6373         35
  37.6559         34
  37.6745         30
  37.6931         24
  37.7116         31
  37.7302         26
  37.7488         33
  37.7674         27
  37.7859         20
  37.8045         48
  37.8231         33
  37.8417         48
  37.8602         35
  37.8788         36
  37.8974         45
  37.9160         41
  37.9345         32
  37.9531         34
  37.9717         35
  37.9903         30
  38.0088         29
  38.0274         41
  38.0460         22
  38.0646         29
  38.0831         37
  38.1017         23
  38.1203         30
  38.1389         32
  38.1574         31
  38.1760         34
  38.1946         34
  38.2132         27
  38.2317         35
  38.2503         28
  38.2689         26
  38.2875         27
  38.3061         24
  38.3246         24
  38.3432         36
  38.3618         29
  38.3804         32
  38.3989         25
  38.4175         35
  38.4361         32
  38.4547         31
  38.4732         29
  38.4918         37
  38.5104         31
  38.5290         28
  38.5475         37
  38.5661         31
  38.5847         24
  38.6033         30
  38.6218         29
  38.6404         28
  38.6590         25
  38.6776         42
  38.6961         32
  38.7147         28
  38.7333         34
  38.7519         27
  38.7704         22
  38.7890         26
  38.8076         26
  38.8262         24
  38.8447         35
  38.8633         32
  38.8819         24
  38.9005         23
  38.9190         30
  38.9376         33
  38.9562         29
  38.9748         36
  38.9933         28
  39.0119         31
  39.0305         43
  39.0491         33
  39.0677         30
  39.0862         33
  39.1048         29
  39.1234         29
  39.1420         30
  39.1605         17
  39.1791         35
  39.1977         34
  39.2163         23
  39.2348         36
  39.2534         24
  39.2720         28
  39.2906         26
  39.3091         22
  39.3277         28
  39.3463         22
  39.3649         27
  39.3834         26
  39.4020         32
  39.4206         35
  39.4392         30
  39.4577         25
  39.4763         23
  39.4949         41
  39.5135         28
  39.5320         38
  39.5506         28
  39.5692         30
  39.5878         24
  39.6063         44
  39.6249         20
  39.6435         36
  39.6621         29
  39.6806         27
  39.6992         21
  39.7178         22
  39.7364         29
  39.7549         31
  39.7735         33
  39.7921         28
  39.8107         36
  39.8293         28
  39.8478         25
  39.8664         29
  39.8850         26
  39.9036         28
  39.9221         30
  39.9407         31
  39.9593         35
  39.9779         33
  39.9964         27
  40.0150         28
  40.0336         33
  40.0522         28
  40.0707         34
  40.0893         22
  40.1079         26
  40.1265         41
  40.1450         27
  40.1636         38
  40.1822         28
  40.2008         26
  40.2193         29
  40.2379         30
  40.2565         32
  40.2751         29
  40.2936         32
  40.3122         20
  40.3308         25
  40.3494         33
  40.3679         36
  40.3865         29
  40.4051         28
  40.4237         18
  40.4422         34
  40.4608         23
  40.4794         23
  40.4980         27
  40.5165         29
  40.5351         31
  40.5537         30
  40.5723         33
  40.5908         30
  40.6094         27
  40.6280         25
  40.6466         20
  40.6652         24
  40.6837         29
  40.7023         36
  40.7209         30
  40.7395         26
  40.7580         27
  40.7766         32
  40.7952         22
  40.8138         31
  40.8323         22
  40.8509         30
  40.8695         21
  40.8881         28
  40.9066         38
  40.9252         35
  40.9438         32
  40.9624         32
  40.9809         34
  40.9995         41
  41.0181         41
  41.0367         25
  41.0552         32
  41.0738         33
  41.0924         33
  41.1110         27
  41.1295         30
  41.1481         34
  41.1667         28
  41.1853         29
  41.2038         28
  41.2224         27
  41.2410         24
  41.2596         29
  41.2781         30
  41.2967         40
  41.3153         38
  41.3339         19
  41.3524         26
  41.3710         22
  41.3896         19
  41.4082         34
  41.4268         27
  41.4453         24
  41.4639         23
  41.4825         26
  41.5011         23
  41.5196         34
  41.5382         16
  41.5568         27
  41.5754         21
  41.5939         36
  41.6125         29
  41.6311         37
  41.6497         26
  41.6682         29
  41.6868         30
  41.7054         28
  41.7240         26
  41.7425         23
  41.7611         21
  41.7797         30
  41.7983         23
  41.8168         32
  41.8354         29
  41.8540         26
  41.8726         33
  41.8911         29
  41.9097         34
  41.9283         28
  41.9469         26
  41.9654         28
  41.9840         17
  42.0026         36
  42.0212         27
  42.0397         30
  42.0583         28
  42.0769         18
  42.0955         29
  42.1140         34
  42.1326         26
  42.1512         32
  42.1698         23
  42.1884         28
  42.2069         33
  42.2255         22
  42.2441         22
  42.2627         28
  42.2812         27
  42.2998         22
  42.3184         25
  42.3370         16
  42.3555         25
  42.3741         29
  42.3927         26
  42.4113         28
  42.4298         34
  42.4484         34
  42.4670         29
  42.4856         29
  42.5041         27
  42.5227         31
  42.5413         34
  42.5599         21
  42.5784         37
  42.5970         36
  42.6156         21
  42.6342         28
  42.6527         33
  42.6713         35
  42.6899         29
  42.7085         33
  42.7270         27
  42.7456         29
  42.7642         29
  42.7828         34
  42.8013         28
  42.8199         29
  42.8385         29
  42.8571         25
  42.8756         29
  42.8942         20
  42.9128         31
  42.9314         29
  42.9500         23
  42.9685         29
  42.9871         25
  43.0057         31
  43.0243         29
  43.0428         30
  43.0614         38
  43.0800         21
  43.0986         27
  43.1171         24
  43.1357         25
  43.1543         24
  43.1729         27
  43.1914         40
  43.2100         22
  43.2286         31
  43.2472         26
  43.2657         29
  43.2843         34
  43.3029         37
  43.3215         34
  43.3400         34
  43.3586         37
  43.3772         31
  43.3958         34
  43.4143         31
  43.4329         35
  43.4515         36
  43.4701         55
  43.4886         56
  43.5072         45
  43.5258         39
  43.5444         32
  43.5629         27
  43.5815         39
  43.6001         35
  43.6187         30
  43.6372         34
  43.6558         26
  43.6744         31
  43.6930         19
  43.7116         25
  43.7301         36
  43.7487         19
  43.7673         19
  43.7859         29
  43.8044         21
  43.8230         25
  43.8416         33
  43.8602         28
  43.8787         23
  43.8973         30
  43.9159         23
  43.9345         25
  43.9530         26
  43.9716         32
  43.9902         23
  44.0088         35
  44.0273         22
  44.0459         34
  44.0645         35
  44.0831         26
  44.1016         24
  44.1202         27
  44.1388         27
  44.1574         30
  44.1759         26
  44.1945         27
  44.2131         32
  44.2317         26
  44.2502         29
  44.2688         24
  44.2874         26
  44.3060         25
  44.3245         28
  44.3431         21
  44.3617         26
  44.3803         26
  44.3988         24
  44.4174         19
  44.4360         27
  44.4546         25
  44.4732         33
  44.4917         27
  44.5103         25
  44.5289         28
  44.5475         28
  44.5660         28
  44.5846         28
  44.6032         30
  44.6218         25
  44.6403         27
  44.6589         32
  44.6775         38
  44.6961         29
  44.7146         20
  44.7332         17
  44.7518         20
  44.7704         21
  44.7889         31
  44.8075         19
  44.8261         30
  44.8447         25
  44.8632         19
  44.8818         31
  44.9004         29
  44.9190         28
  44.9375         26
  44.9561         25
  44.9747         29
  44.9933         30
  45.0118         26
  45.0304         30
  45.0490         18
  45.0676         22
  45.0861         19
  45.1047         21
  45.1233         34
  45.1419         21
  45.1604         30
  45.1790         39
  45.1976         32
  45.2162         28
  45.2347         35
  45.2533         24
  45.2719         28
  45.2905         21
  45.3091         27
  45.3276         20
  45.3462         27
  45.3648         34
  45.3834         27
  45.4019         18
  45.4205         33
  45.4391         25
  45.4577         20
  45.4762         28
  45.4948         20
  45.5134         17
  45.5320         18
  45.5505         25
  45.5691         26
  45.5877         27
  45.6063         29
  45.6248         23
  45.6434         32
  45.6620         28
  45.6806         30
  45.6991         29
  45.7177         28
  45.7363         28
  45.7549         27
  45.7734         27
  45.7920         17
  45.8106         24
  45.8292         26
  45.8477         24
  45.8663         24
  45.8849         19
  45.9035         27
  45.9220         14
  45.9406         22
  45.9592         23
  45.9778         27
  45.9963         22
  46.0149         22
  46.0335         27
  46.0521         25
  46.0707         27
  46.0892         25
  46.1078         21
  46.1264         32
  46.1450         22
  46.1635         23
  46.1821         28
  46.2007         23
  46.2193         31
  46.2378         33
  46.2564         29
  46.2750         24
  46.2936         26
  46.3121         22
  46.3307         20
  46.3493         22
  46.3679         19
  46.3864         32
  46.4050         21
  46.4236         27
  46.4422         28
  46.4607         23
  46.4793         22
  46.4979         35
  46.5165         17
  46.5350         23
  46.5536         25
  46.5722         24
  46.5908         28
  46.6093         17
  46.6279         32
  46.6465         24
  46.6651         25
  46.6836         20
  46.7022         18
  46.7208         29
  46.7394         19
  46.7579         27
  46.7765         25
  46.7951         12
  46.8137         30
  46.8323         35
  46.8508         23
  46.8694         28
  46.8880         27
  46.9066         24
  46.9251         24
  46.9437         15
  46.9623         24
  46.9809         24
  46.9994         25
  47.0180         22
  47.0366         22
  47.0552         27
  47.0737         30
  47.0923         24
  47.1109         20
  47.1295         25
  47.1480         24
  47.1666         23
  47.1852         30
  47.2038         24
  47.2223         21
  47.2409         13
  47.2595         27
  47.2781         24
  47.2966         28
  47.3152         25
  47.3338         21
  47.3524         24
  47.3709         27
  47.3895         34
  47.4081         32
  47.4267         27
  47.4452         12
  47.4638         23
  47.4824         20
  47.5010         24
  47.5195         23
  47.5381         15
  47.5567         17
  47.5753         27
  47.5939         20
  47.6124         33
  47.6310         18
  47.6496         24
  47.6682         25
  47.6867         17
  47.7053         20
  47.7239         20
  47.7425         29
  47.7610         24
  47.7796         17
  47.7982         23
  47.8168         14
  47.8353         25
  47.8539         13
  47.8725         28
  47.8911         19
  47.9096         33
  47.9282         26
  47.9468         27
  47.9654         18
  47.9839         23
  48.0025         23
  48.0211         23
  48.0397         18
  48.0582         25
  48.0768         23
  48.0954         18
  48.1140         26
  48.1325         20
  48.1511         29
  48.1697         23
  48.1883         17
  48.2068         30
  48.2254         17
  48.2440         26
  48.2626         20
  48.2811         20
  48.2997         20
  48.3183         16
  48.3369         20
  48.3555         22
  48.3740         24
  48.3926         29
  48.4112         14
  48.4298         25
  48.4483         19
  48.4669         22
  48.4855         24
  48.5041         18
  48.5226         26
  48.5412         24
  48.5598         31
  48.5784         17
  48.5969         29
  48.6155         22
  48.6341         21
  48.6527         22
  48.6712         22
  48.6898         31
  48.7084         17
  48.7270         20
  48.7455         17
  48.7641         16
  48.7827         18
  48.8013         28
  48.8198         26
  48.8384         24
  48.8570         22
  48.8756         25
  48.8941         31
  48.9127         33
  48.9313         37
  48.9499         45
  48.9684         38
  48.9870         32
  49.0056         26
  49.0242         28
  49.0427         26
  49.0613         49
  49.0799         36
  49.0985         24
  49.1171         29
  49.1356         21
  49.1542         20
  49.1728         27
  49.1914         19
  49.2099         28
  49.2285         31
  49.2471         28
  49.2657         32
  49.2842         25
  49.3028         22
  49.3214         18
  49.3400         23
  49.3585         21
  49.3771         18
  49.3957         31
  49.4143         22
  49.4328         29
  49.4514         22
  49.4700         21
  49.4886         26
  49.5071         23
  49.5257         22
  49.5443         29
  49.5629         30
  49.5814         27
  49.6000         25
  49.6186         33
  49.6372         30
  49.6557         27
  49.6743         22
  49.6929         32
  49.7115         23
  49.7300         24
  49.7486         30
  49.7672         22
  49.7858         29
  49.8043         31
  49.8229         20
  49.8415         25
  49.8601         20
  49.8786         20
  49.8972         22
  49.9158         22
  49.9344         22
  49.9530         23
  49.9715         31
  49.9901         29
  50.0087         26
  50.0273         25
  50.0458         28
  50.0644         20
  50.0830         22
  50.1016         25
  50.1201         26
  50.1387         21
  50.1573         18
  50.1759         26
  50.1944         15
  50.2130         24
  50.2316         30
  50.2502         23
  50.2687         20
  50.2873         23
  50.3059         32
  50.3245         23
  50.3430         26
  50.3616         25
  50.3802         23
  50.3988         18
  50.4173         15
  50.4359         19
  50.4545         19
  50.4731         26
  50.4916         22
  50.5102         25
  50.5288         24
  50.5474         33
  50.5659         21
  50.5845         30
  50.6031         19
  50.6217         32
  50.6402         18
  50.6588         23
  50.6774         19
  50.6960         37
  50.7146         29
  50.7331         17
  50.7517         23
  50.7703         18
  50.7889         12
  50.8074         19
  50.8260         28
  50.8446         24
  50.8632         25
  50.8817         25
  50.9003         22
  50.9189         19
  50.9375         21
  50.9560         32
  50.9746         20
  50.9932         21
  51.0118         26
  51.0303         24
  51.0489         25
  51.0675         26
  51.0861         27
  51.1046         14
  51.1232         12
  51.1418         20
  51.1604         28
  51.1789         23
  51.1975         24
  51.2161         22
  51.2347         32
  51.2532         21
  51.2718         23
  51.2904         25
  51.3090         24
  51.3275         23
  51.3461         25
  51.3647         25
  51.3833         26
  51.4018         21
  51.4204         37
  51.4390         29
  51.4576         19
  51.4762         31
  51.4947         23
  51.5133         24
  51.5319         28
  51.5505         20
  51.5690         18
  51.5876         16
  51.6062         27
  51.6248         26
  51.6433         19
  51.6619         22
  51.6805         22
  51.6991         22
  51.7176         24
  51.7362         25
  51.7548         21
  51.7734         25
  51.7919         31
  51.8105         27
  51.8291         28
  51.8477         26
  51.8662         19
  51.8848         30
  51.9034         28
  51.9220         23
  51.9405         18
  51.9591         25
  51.9777         19
  51.9963         25
  52.0148         19
  52.0334         22
  52.0520         23
  52.0706         26
  52.0891         17
  52.1077         21
  52.1263         16
  52.1449         18
  52.1634         26
  52.1820         27
  52.2006         24
  52.2192         22
  52.2378         25
  52.2563         22
  52.2749         17
  52.2935         18
  52.3121         20
  52.3306         16
  52.3492         18
  52.3678         24
  52.3864         28
  52.4049         21
  52.4235         26
  52.4421         19
  52.4607         17
  52.4792         18
  52.4978         24
  52.5164         21
  52.5350         22
  52.5535         20
  52.5721         28
  52.5907         20
  52.6093         22
  52.6278         20
  52.6464         23
  52.6650         23
  52.6836         16
  52.7021         28
  52.7207         20
  52.7393         17
  52.7579         23
  52.7764         17
  52.7950         16
  52.8136         19
  52.8322         18
  52.8507         20
  52.8693         14
  52.8879         19
  52.9065         24
  52.9250         20
  52.9436         18
  52.9622         22
  52.9808         24
  52.9994         20
  53.0179         27
  53.0365         21
  53.0551         23
  53.0737         16
  53.0922         28
  53.1108         25
  53.1294         22
  53.1480         24
  53.1665         23
  53.1851         32
  53.2037         29
  53.2223         14
  53.2408         23
  53.2594         20
  53.2780         34
  53.2966         18
  53.3151         33
  53.3337         15
  53.3523         24
  53.3709         22
  53.3894         19
  53.4080         25
  53.4266         15
  53.4452         18
  53.4637         30
  53.4823         25
  53.5009         18
  53.5195         23
  53.5380         11
  53.5566         16
  53.5752         21
  53.5938         19
  53.6123         20
  53.6309         24
  53.6495         26
  53.6681         24
  53.6866         28
  53.7052         29
  53.7238         25
  53.7424         23
  53.7610         25
  53.7795         26
  53.7981         23
  53.8167         16
  53.8353         21
  53.8538         21
  53.8724         20
  53.8910         32
  53.9096         25
  53.9281         21
  53.9467         24
  53.9653         28
  53.9839         32
  54.0024         32
  54.0210         22
  54.0396         26
  54.0582         15
  54.0767         17
  54.0953         17
  54.1139         26
  54.1325         22
  54.1510         29
  54.1696         24
  54.1882         20
  54.2068         16
  54.2253         26
  54.2439         25
  54.2625         19
  54.2811         23
  54.2996         22
  54.3182         18
  54.3368         30
  54.3554         23
  54.3739         15
  54.3925         23
  54.4111         19
  54.4297         19
  54.4482         27
  54.4668         21
  54.4854         27
  54.5040         17
  54.5225         20
  54.5411         32
  54.5597         31
  54.5783         19
  54.5969         19
  54.6154         17
  54.6340         20
  54.6526         24
  54.6712         13
  54.6897         25
  54.7083         18
  54.7269         14
  54.7455         23
  54.7640         19
  54.7826         20
  54.8012         20
  54.8198         18
  54.8383         21
  54.8569         15
  54.8755         18
  54.8941         17
  54.9126         19
  54.9312         16
  54.9498         18
  54.9684         14
  54.9869         20
  55.0055         15
  55.0241         29
  55.0427         21
  55.0612         19
  55.0798         17
  55.0984         25
  55.1170         18
  55.1355         26
  55.1541         21
  55.1727         23
  55.1913         18
  55.2098         11
  55.2284         19
  55.2470         17
  55.2656         22
  55.2841         16
  55.3027         18
  55.3213         21
  55.3399         16
  55.3585         33
  55.3770         26
  55.3956         24
  55.4142         29
  55.4328         20
  55.4513         20
  55.4699         19
  55.4885         34
  55.5071         24
  55.5256         25
  55.5442         27
  55.5628         12
  55.5814         16
  55.5999         24
  55.6185         28
  55.6371         19
  55.6557         19
  55.6742         23
  55.6928         17
  55.7114         21
  55.7300         16
  55.7485         16
  55.7671         16
  55.7857         18
  55.8043         23
  55.8228         20
  55.8414         15
  55.8600         15
  55.8786         21
  55.8971         21
  55.9157         18
  55.9343         22
  55.9529         30
  55.9714         28
  55.9900         29
  56.0086         20
  56.0272         23
  56.0457         26
  56.0643         20
  56.0829         23
  56.1015         18
  56.1201         26
  56.1386         20
  56.1572         24
  56.1758         16
  56.1944         21
  56.2129         21
  56.2315         22
  56.2501         24
  56.2687         29
  56.2872         14
  56.3058         23
  56.3244         29
  56.3430         25
  56.3615         15
  56.3801         23
  56.3987         23
  56.4173         25
  56.4358         24
  56.4544         19
  56.4730         18
  56.4916         22
  56.5101         20
  56.5287         23
  56.5473         29
  56.5659         23
  56.5844         17
  56.6030         21
  56.6216         25
  56.6402         20
  56.6587         21
  56.6773         20
  56.6959         18
  56.7145         17
  56.7330         28
  56.7516         16
  56.7702         13
  56.7888         19
  56.8073         19
  56.8259         26
  56.8445         24
  56.8631         19
  56.8817         19
  56.9002         29
  56.9188         20
  56.9374         22
  56.9560         23
  56.9745         25
  56.9931         17
  57.0117         19
  57.0303         18
  57.0488         15
  57.0674         16
  57.0860         16
  57.1046         24
  57.1231         22
  57.1417         10
  57.1603         19
  57.1789         20
  57.1974         25
  57.2160         15
  57.2346         13
  57.2532         17
  57.2717         20
  57.2903         17
  57.3089         31
  57.3275         22
  57.3460         18
  57.3646         18
  57.3832         18
  57.4018         20
  57.4203         11
  57.4389         31
  57.4575         21
  57.4761         18
  57.4946         32
  57.5132         16
  57.5318         22
  57.5504         16
  57.5689         20
  57.5875         27
  57.6061         20
  57.6247         24
  57.6433         13
  57.6618         18
  57.6804         23
  57.6990         12
  57.7176         19
  57.7361         20
  57.7547         26
  57.7733         26
  57.7919         22
  57.8104         20
  57.8290         22
  57.8476         18
  57.8662         13
  57.8847         17
  57.9033         16
  57.9219         21
  57.9405         15
  57.9590         15
  57.9776         19
  57.9962         34
  58.0148         16
  58.0333         20
  58.0519         18
  58.0705         21
  58.0891         26
  58.1076         12
  58.1262         30
  58.1448         21
  58.1634         26
  58.1819         16
  58.2005         25
  58.2191         23
  58.2377          9
  58.2562         21
  58.2748         25
  58.2934         18
  58.3120         24
  58.3305         18
  58.3491         22
  58.3677         17
  58.3863         16
  58.4049         25
  58.4234         20
  58.4420         18
  58.4606         20
  58.4792         23
  58.4977         18
  58.5163         21
  58.5349         15
  58.5535         28
  58.5720         23
  58.5906         27
  58.6092         26
  58.6278         16
  58.6463         22
  58.6649         18
  58.6835         17
  58.7021         17
  58.7206         13
  58.7392         20
  58.7578         18
  58.7764         28
  58.7949         18
  58.8135         27
  58.8321         18
  58.8507         14
  58.8692         13
  58.8878         19
  58.9064         17
  58.9250         20
  58.9435         13
  58.9621         20
  58.9807         26
  58.9993         20
  59.0178         23
  59.0364         23
  59.0550         26
  59.0736         18
  59.0921         24
  59.1107         24
  59.1293         23
  59.1479         18
  59.1664         19
  59.1850         16
  59.2036         15
  59.2222         22
  59.2408         18
  59.2593         23
  59.2779         20
  59.2965         11
  59.3151         13
  59.3336         25
  59.3522         25
  59.3708         19
  59.3894         27
  59.4079         20
  59.4265         13
  59.4451         23
  59.4637         21
  59.4822         20
  59.5008         15
  59.5194         13
  59.5380         16
  59.5565         21
  59.5751         22
  59.5937         21
  59.6123         17
  59.6308         22
  59.6494         19
  59.6680         24
  59.6866         18
  59.7051         16
  59.7237         22
  59.7423         22
  59.7609         20
  59.7794         20
  59.7980         25
  59.8166         25
  59.8352         21
  59.8537         18
  59.8723         28
  59.8909         20
  59.9095         21
  59.9280         19
  59.9466         31
  59.9652         19
  59.9838         24
  60.0024         20
