; (content of file Y:\Sam\Apurva-07-20-2022\puck4\ML_20220718_0_SJD_0_LaB6-1min.raw)
_FILEVERSION = 3
_SAMPLE = ML_20220718_0_SJD_0_LaB6-1mi
_+SAMPLE = 
_SITE = USA
_USER = Administrator
_GONIOMETER_CODE = 20
; Goniometer : D8 theta/2theta, stage : Unknown
_ATTACHMENTS_CODE = 0
_GONIOMETER_RADIUS = 200.5
_FIXED_DIVSLIT = 0.6
_FIXED_SAMPLESLIT = 0
_SOLLER_SLITS = 2
_FIXED_DETSLIT = 9.55
_MONOCHROMATOR = 0
; Incident beam monochromator : None
_SOLLER_SLITS_2 = N
_THIN_FILM = N
_BETA_FILTER = Y
_FIXED_ANTISLIT = 5.89
_ANALYZER_CODE = 0
; Received beam analyzer : None
_DATEMEASURED = "21-Jul-2022 02:58:41"
_WL_UNIT = A
_WL1 = 1.5406
_WL2 = 1.54439
_WL3 = 1.39222
_WLRATIO = 0.5
_ANODE = Cu
_V4_INF_CREATOR = XRDWizard
_V4_INF_CREATOR_VERSION = V2.9.0.22
_V4_INF_WIZARD_VERSION = V2.9.0.22
_V4_INF_WIZARD_ADDINS = V2.9.0.22
_V4_INF_WIZARD_DOCTYPE = XRD
_V4_INF_OSUSER = McQueenLab
_V4_INF_USER = Administrator
_V4_INF_SITE = USA
_V4_INF_SAMPLEID = ML_20220718_0_SJD_0_LaB6-1mi

; Data for range 1
_DRIVE = COUPLED
_STEPTIME = 4.23
_STEPSIZE = 0.0185756
_STEPMODE = C
_START = 5
_THETA = 2.5
_2THETA = 5
_KHI = 0
_PHI = 0
_X = 0
_Y = 0
_Z = 0
_DETECTOR = 5
; Detector type : Unknown
_DETECTORSLIT = unkn
_AUX1 = 0
_AUX2 = 0
_AUX3 = 0
_TIMESTARTED = 15
_TEMP_RATE = -1
_TEMP_DELAY = -1
_KV = 40
_MA = 40
_RANGE_WL = 1.5406
_3DPLANE = 0
_V4_ADDITIONALDETECTOR = 257
_V4_PSD2THETA = 3.3706
_V4_PSDCHANNEL1 = 0
_V4_PSDAPERTURE = 12.68
_V4_PSDTYPE = 5
_V4_PSDFIXED = 0
_V4_COUNTERS_MASK = 4096
_V4_DRIVES_MASK = 0
_V4_ENCODERS_MASK = 0
_2THETACOUNTS = 1
; 2THETA  PSD
   5.0000         84
   5.0186         80
   5.0372         91
   5.0557        100
   5.0743         94
   5.0929        109
   5.1115         98
   5.1300         79
   5.1486         89
   5.1672         98
   5.1858         76
   5.2043         81
   5.2229         86
   5.2415         73
   5.2601         71
   5.2786         85
   5.2972         96
   5.3158         81
   5.3344         93
   5.3529         94
   5.3715         83
   5.3901         86
   5.4087         86
   5.4272         84
   5.4458         94
   5.4644         84
   5.4830         85
   5.5015         97
   5.5201         94
   5.5387         83
   5.5573         91
   5.5758         62
   5.5944         75
   5.6130         65
   5.6316         76
   5.6501         73
   5.6687         78
   5.6873         74
   5.7059         81
   5.7244         76
   5.7430         62
   5.7616         85
   5.7802         79
   5.7988         82
   5.8173         77
   5.8359         91
   5.8545         73
   5.8731         75
   5.8916         72
   5.9102         75
   5.9288         82
   5.9474         68
   5.9659         76
   5.9845         70
   6.0031         68
   6.0217         86
   6.0402         66
   6.0588         70
   6.0774         69
   6.0960         76
   6.1145         63
   6.1331         60
   6.1517         67
   6.1703         68
   6.1888         70
   6.2074         70
   6.2260         55
   6.2446         63
   6.2631         74
   6.2817         62
   6.3003         61
   6.3189         71
   6.3374         61
   6.3560         61
   6.3746         53
   6.3932         51
   6.4117         55
   6.4303         61
   6.4489         60
   6.4675         61
   6.4860         62
   6.5046         60
   6.5232         66
   6.5418         70
   6.5604         50
   6.5789         75
   6.5975         57
   6.6161         56
   6.6347         54
   6.6532         58
   6.6718         54
   6.6904         64
   6.7090         58
   6.7275         58
   6.7461         59
   6.7647         68
   6.7833         63
   6.8018         60
   6.8204         54
   6.8390         57
   6.8576         75
   6.8761         67
   6.8947         59
   6.9133         60
   6.9319         69
   6.9504         60
   6.9690         50
   6.9876         45
   7.0062         55
   7.0247         67
   7.0433         55
   7.0619         66
   7.0805         70
   7.0990         57
   7.1176         68
   7.1362         46
   7.1548         68
   7.1733         58
   7.1919         53
   7.2105         52
   7.2291         65
   7.2476         56
   7.2662         57
   7.2848         53
   7.3034         55
   7.3220         57
   7.3405         74
   7.3591         43
   7.3777         50
   7.3963         53
   7.4148         53
   7.4334         58
   7.4520         64
   7.4706         51
   7.4891         66
   7.5077         63
   7.5263         52
   7.5449         60
   7.5634         57
   7.5820         52
   7.6006         56
   7.6192         72
   7.6377         62
   7.6563         65
   7.6749         55
   7.6935         73
   7.7120         65
   7.7306         65
   7.7492         61
   7.7678         79
   7.7863         61
   7.8049         54
   7.8235         72
   7.8421         66
   7.8606         69
   7.8792         65
   7.8978         52
   7.9164         69
   7.9349         75
   7.9535         74
   7.9721         60
   7.9907         56
   8.0092         71
   8.0278         66
   8.0464         58
   8.0650         50
   8.0835         56
   8.1021         63
   8.1207         68
   8.1393         61
   8.1579         77
   8.1764         64
   8.1950         62
   8.2136         54
   8.2322         80
   8.2507         67
   8.2693         55
   8.2879         63
   8.3065         58
   8.3250         68
   8.3436         70
   8.3622         61
   8.3808         70
   8.3993         62
   8.4179         62
   8.4365         62
   8.4551         58
   8.4736         70
   8.4922         61
   8.5108         77
   8.5294         69
   8.5479         62
   8.5665         67
   8.5851         66
   8.6037         70
   8.6222         66
   8.6408         58
   8.6594         81
   8.6780         77
   8.6965         71
   8.7151         78
   8.7337         79
   8.7523         71
   8.7708         72
   8.7894         72
   8.8080         55
   8.8266         70
   8.8451         82
   8.8637         89
   8.8823         65
   8.9009         72
   8.9195         74
   8.9380         85
   8.9566         88
   8.9752         89
   8.9938         66
   9.0123         70
   9.0309         75
   9.0495         68
   9.0681         88
   9.0866         67
   9.1052         89
   9.1238         78
   9.1424         81
   9.1609         76
   9.1795         74
   9.1981         85
   9.2167         74
   9.2352         75
   9.2538         79
   9.2724         85
   9.2910         86
   9.3095         80
   9.3281         73
   9.3467         81
   9.3653         88
   9.3838         75
   9.4024         75
   9.4210         81
   9.4396         92
   9.4581         76
   9.4767         76
   9.4953         72
   9.5139         73
   9.5324         88
   9.5510         70
   9.5696         89
   9.5882         64
   9.6067         69
   9.6253         75
   9.6439         74
   9.6625         77
   9.6811         64
   9.6996         78
   9.7182         71
   9.7368         82
   9.7554         81
   9.7739         88
   9.7925         96
   9.8111         88
   9.8297         94
   9.8482         75
   9.8668         93
   9.8854         92
   9.9040         77
   9.9225         80
   9.9411         88
   9.9597         81
   9.9783         88
   9.9968         80
  10.0154         74
  10.0340         93
  10.0526         83
  10.0711         85
  10.0897         62
  10.1083         86
  10.1269         97
  10.1454         72
  10.1640         76
  10.1826        102
  10.2012         97
  10.2197         93
  10.2383         84
  10.2569         94
  10.2755         96
  10.2940         96
  10.3126         83
  10.3312         88
  10.3498         92
  10.3683         83
  10.3869         82
  10.4055         94
  10.4241         86
  10.4427         84
  10.4612        100
  10.4798         76
  10.4984         89
  10.5170        100
  10.5355         87
  10.5541         97
  10.5727         81
  10.5913         77
  10.6098        101
  10.6284         74
  10.6470         79
  10.6656         79
  10.6841         95
  10.7027         84
  10.7213         81
  10.7399         84
  10.7584         96
  10.7770         96
  10.7956         80
  10.8142        100
  10.8327         80
  10.8513         88
  10.8699         94
  10.8885         89
  10.9070         82
  10.9256         82
  10.9442        101
  10.9628         85
  10.9813         85
  10.9999         82
  11.0185         72
  11.0371         77
  11.0556         77
  11.0742         84
  11.0928         98
  11.1114        109
  11.1299         90
  11.1485         82
  11.1671         79
  11.1857         89
  11.2043         77
  11.2228         95
  11.2414         94
  11.2600         72
  11.2786         74
  11.2971         74
  11.3157         84
  11.3343         89
  11.3529         88
  11.3714         86
  11.3900         82
  11.4086         75
  11.4272         76
  11.4457        105
  11.4643         75
  11.4829         67
  11.5015         86
  11.5200         79
  11.5386         91
  11.5572         81
  11.5758         76
  11.5943         76
  11.6129         91
  11.6315         89
  11.6501        104
  11.6686         80
  11.6872         94
  11.7058         81
  11.7244         85
  11.7429         75
  11.7615         78
  11.7801         81
  11.7987         67
  11.8172         80
  11.8358         79
  11.8544         73
  11.8730         85
  11.8915         82
  11.9101         82
  11.9287         84
  11.9473         72
  11.9659         77
  11.9844         73
  12.0030         86
  12.0216         80
  12.0402         76
  12.0587         84
  12.0773         84
  12.0959         71
  12.1145         74
  12.1330         70
  12.1516         84
  12.1702         77
  12.1888         86
  12.2073         81
  12.2259         82
  12.2445         75
  12.2631         76
  12.2816         80
  12.3002         82
  12.3188         93
  12.3374         78
  12.3559         76
  12.3745         79
  12.3931         87
  12.4117         56
  12.4302         75
  12.4488         81
  12.4674         73
  12.4860         96
  12.5045         80
  12.5231         67
  12.5417         77
  12.5603         71
  12.5788         62
  12.5974         73
  12.6160         75
  12.6346         66
  12.6531         81
  12.6717         83
  12.6903         86
  12.7089         80
  12.7274         65
  12.7460         80
  12.7646         68
  12.7832         77
  12.8018         69
  12.8203         68
  12.8389         67
  12.8575         69
  12.8761         95
  12.8946         75
  12.9132         70
  12.9318         78
  12.9504         72
  12.9689         87
  12.9875         55
  13.0061         75
  13.0247         74
  13.0432         68
  13.0618         91
  13.0804         76
  13.0990         82
  13.1175         74
  13.1361         73
  13.1547         77
  13.1733         82
  13.1918         62
  13.2104         55
  13.2290         81
  13.2476         69
  13.2661         74
  13.2847         58
  13.3033         63
  13.3219         63
  13.3404         65
  13.3590         68
  13.3776         65
  13.3962         58
  13.4147         81
  13.4333         72
  13.4519         78
  13.4705         78
  13.4890         84
  13.5076         66
  13.5262         77
  13.5448         79
  13.5634         77
  13.5819         71
  13.6005         62
  13.6191         76
  13.6377         57
  13.6562         62
  13.6748         80
  13.6934         64
  13.7120         62
  13.7305         54
  13.7491         69
  13.7677         78
  13.7863         61
  13.8048         83
  13.8234         72
  13.8420         62
  13.8606         65
  13.8791         66
  13.8977         71
  13.9163         69
  13.9349         58
  13.9534         81
  13.9720         66
  13.9906         85
  14.0092         51
  14.0277         63
  14.0463         60
  14.0649         68
  14.0835         51
  14.1020         70
  14.1206         73
  14.1392         70
  14.1578         60
  14.1763         57
  14.1949         71
  14.2135         70
  14.2321         66
  14.2506         55
  14.2692         76
  14.2878         54
  14.3064         65
  14.3250         56
  14.3435         49
  14.3621         66
  14.3807         63
  14.3993         60
  14.4178         58
  14.4364         56
  14.4550         58
  14.4736         72
  14.4921         61
  14.5107         69
  14.5293         54
  14.5479         67
  14.5664         69
  14.5850         62
  14.6036         66
  14.6222         65
  14.6407         53
  14.6593         57
  14.6779         58
  14.6965         67
  14.7150         63
  14.7336         64
  14.7522         75
  14.7708         72
  14.7893         64
  14.8079         51
  14.8265         51
  14.8451         57
  14.8636         71
  14.8822         48
  14.9008         63
  14.9194         59
  14.9379         57
  14.9565         62
  14.9751         61
  14.9937         59
  15.0122         59
  15.0308         60
  15.0494         55
  15.0680         58
  15.0866         53
  15.1051         47
  15.1237         56
  15.1423         59
  15.1609         54
  15.1794         47
  15.1980         53
  15.2166         59
  15.2352         58
  15.2537         61
  15.2723         51
  15.2909         52
  15.3095         75
  15.3280         65
  15.3466         67
  15.3652         60
  15.3838         52
  15.4023         50
  15.4209         59
  15.4395         61
  15.4581         59
  15.4766         58
  15.4952         53
  15.5138         48
  15.5324         62
  15.5509         50
  15.5695         70
  15.5881         59
  15.6067         73
  15.6252         71
  15.6438         59
  15.6624         53
  15.6810         74
  15.6995         55
  15.7181         66
  15.7367         61
  15.7553         47
  15.7738         52
  15.7924         64
  15.8110         72
  15.8296         60
  15.8482         62
  15.8667         47
  15.8853         58
  15.9039         64
  15.9225         72
  15.9410         42
  15.9596         63
  15.9782         54
  15.9968         52
  16.0153         52
  16.0339         57
  16.0525         52
  16.0711         52
  16.0896         43
  16.1082         56
  16.1268         54
  16.1454         63
  16.1639         69
  16.1825         54
  16.2011         49
  16.2197         65
  16.2382         55
  16.2568         51
  16.2754         61
  16.2940         73
  16.3125         59
  16.3311         53
  16.3497         51
  16.3683         64
  16.3868         68
  16.4054         55
  16.4240         63
  16.4426         58
  16.4611         56
  16.4797         48
  16.4983         75
  16.5169         69
  16.5354         64
  16.5540         51
  16.5726         42
  16.5912         61
  16.6097         58
  16.6283         56
  16.6469         57
  16.6655         52
  16.6841         61
  16.7026         52
  16.7212         45
  16.7398         54
  16.7584         50
  16.7769         62
  16.7955         55
  16.8141         70
  16.8327         61
  16.8512         62
  16.8698         60
  16.8884         75
  16.9070         59
  16.9255         50
  16.9441         61
  16.9627         60
  16.9813         57
  16.9998         55
  17.0184         66
  17.0370         56
  17.0556         63
  17.0741         63
  17.0927         67
  17.1113         62
  17.1299         66
  17.1484         55
  17.1670         56
  17.1856         68
  17.2042         41
  17.2227         68
  17.2413         56
  17.2599         54
  17.2785         48
  17.2970         69
  17.3156         65
  17.3342         51
  17.3528         49
  17.3713         72
  17.3899         67
  17.4085         60
  17.4271         63
  17.4457         58
  17.4642         61
  17.4828         63
  17.5014         71
  17.5200         57
  17.5385         56
  17.5571         58
  17.5757         61
  17.5943         58
  17.6128         50
  17.6314         46
  17.6500         58
  17.6686         75
  17.6871         49
  17.7057         74
  17.7243         59
  17.7429         53
  17.7614         56
  17.7800         67
  17.7986         52
  17.8172         55
  17.8357         53
  17.8543         63
  17.8729         53
  17.8915         56
  17.9100         58
  17.9286         60
  17.9472         60
  17.9658         53
  17.9843         51
  18.0029         59
  18.0215         67
  18.0401         46
  18.0586         57
  18.0772         59
  18.0958         47
  18.1144         59
  18.1329         58
  18.1515         50
  18.1701         80
  18.1887         63
  18.2073         54
  18.2258         69
  18.2444         64
  18.2630         46
  18.2816         51
  18.3001         54
  18.3187         57
  18.3373         53
  18.3559         59
  18.3744         64
  18.3930         58
  18.4116         64
  18.4302         59
  18.4487         55
  18.4673         61
  18.4859         54
  18.5045         62
  18.5230         54
  18.5416         55
  18.5602         59
  18.5788         46
  18.5973         65
  18.6159         55
  18.6345         47
  18.6531         56
  18.6716         59
  18.6902         70
  18.7088         59
  18.7274         68
  18.7459         54
  18.7645         62
  18.7831         65
  18.8017         54
  18.8202         51
  18.8388         53
  18.8574         65
  18.8760         60
  18.8945         49
  18.9131         50
  18.9317         53
  18.9503         72
  18.9689         54
  18.9874         45
  19.0060         65
  19.0246         57
  19.0432         60
  19.0617         59
  19.0803         64
  19.0989         61
  19.1175         72
  19.1360         61
  19.1546         48
  19.1732         60
  19.1918         65
  19.2103         69
  19.2289         59
  19.2475         66
  19.2661         64
  19.2846         63
  19.3032         61
  19.3218         53
  19.3404         67
  19.3589         53
  19.3775         65
  19.3961         54
  19.4147         78
  19.4332         73
  19.4518         65
  19.4704         68
  19.4890         68
  19.5075         68
  19.5261         62
  19.5447         62
  19.5633         69
  19.5818         65
  19.6004         64
  19.6190         62
  19.6376         52
  19.6561         72
  19.6747         64
  19.6933         64
  19.7119         64
  19.7305         61
  19.7490         62
  19.7676         74
  19.7862         75
  19.8048         60
  19.8233         66
  19.8419         60
  19.8605         64
  19.8791         61
  19.8976         46
  19.9162         52
  19.9348         59
  19.9534         59
  19.9719         63
  19.9905         66
  20.0091         73
  20.0277         68
  20.0462         60
  20.0648         53
  20.0834         67
  20.1020         75
  20.1205         75
  20.1391         62
  20.1577         45
  20.1763         50
  20.1948         63
  20.2134         63
  20.2320         51
  20.2506         68
  20.2691         62
  20.2877         56
  20.3063         69
  20.3249         67
  20.3434         62
  20.3620         65
  20.3806         57
  20.3992         51
  20.4177         58
  20.4363         71
  20.4549         51
  20.4735         63
  20.4921         71
  20.5106         73
  20.5292         71
  20.5478         63
  20.5664         74
  20.5849         64
  20.6035         67
  20.6221         55
  20.6407         56
  20.6592         59
  20.6778         68
  20.6964         68
  20.7150         73
  20.7335         66
  20.7521         60
  20.7707         65
  20.7893         68
  20.8078         56
  20.8264         57
  20.8450         79
  20.8636         61
  20.8821         70
  20.9007         62
  20.9193         52
  20.9379         72
  20.9564         63
  20.9750         73
  20.9936         68
  21.0122         68
  21.0307         55
  21.0493         71
  21.0679         85
  21.0865         85
  21.1050         70
  21.1236        103
  21.1422         81
  21.1608         82
  21.1793         89
  21.1979        109
  21.2165         99
  21.2351        111
  21.2537        114
  21.2722        104
  21.2908        119
  21.3094        117
  21.3280        182
  21.3465        182
  21.3651        132
  21.3837        112
  21.4023        130
  21.4208         84
  21.4394         71
  21.4580         68
  21.4766         60
  21.4951         82
  21.5137         92
  21.5323         73
  21.5509         80
  21.5694         84
  21.5880         73
  21.6066         77
  21.6252         64
  21.6437         63
  21.6623         69
  21.6809         73
  21.6995         58
  21.7180         80
  21.7366         65
  21.7552         63
  21.7738         65
  21.7923         64
  21.8109         77
  21.8295         59
  21.8481         81
  21.8666         83
  21.8852         63
  21.9038         66
  21.9224         57
  21.9409         64
  21.9595         54
  21.9781         75
  21.9967         69
  22.0152         72
  22.0338         74
  22.0524         66
  22.0710         76
  22.0896         73
  22.1081         64
  22.1267         58
  22.1453         80
  22.1639         75
  22.1824         75
  22.2010         79
  22.2196         71
  22.2382         77
  22.2567         61
  22.2753         72
  22.2939         60
  22.3125         63
  22.3310         90
  22.3496         75
  22.3682         66
  22.3868         69
  22.4053         66
  22.4239         83
  22.4425         91
  22.4611         74
  22.4796         70
  22.4982         76
  22.5168         64
  22.5354         87
  22.5539         64
  22.5725         79
  22.5911         76
  22.6097         65
  22.6282         67
  22.6468         82
  22.6654         58
  22.6840         71
  22.7025         66
  22.7211         70
  22.7397         68
  22.7583         76
  22.7768         57
  22.7954         84
  22.8140         62
  22.8326         73
  22.8512         57
  22.8697         75
  22.8883         94
  22.9069         68
  22.9255         56
  22.9440         79
  22.9626         62
  22.9812         66
  22.9998         70
  23.0183         77
  23.0369         71
  23.0555         82
  23.0741         64
  23.0926         73
  23.1112         56
  23.1298         64
  23.1484         58
  23.1669         66
  23.1855         80
  23.2041         59
  23.2227         77
  23.2412         86
  23.2598         61
  23.2784         70
  23.2970         84
  23.3155         65
  23.3341         86
  23.3527         75
  23.3713         69
  23.3898         66
  23.4084         75
  23.4270         88
  23.4456         67
  23.4641         65
  23.4827         70
  23.5013         69
  23.5199         63
  23.5384         73
  23.5570         78
  23.5756         73
  23.5942         73
  23.6128         73
  23.6313         65
  23.6499         71
  23.6685         79
  23.6871         76
  23.7056         87
  23.7242         60
  23.7428         58
  23.7614         69
  23.7799         98
  23.7985         77
  23.8171         61
  23.8357         88
  23.8542         59
  23.8728         68
  23.8914         61
  23.9100         68
  23.9285         70
  23.9471         86
  23.9657         81
  23.9843         92
  24.0028         58
  24.0214         73
  24.0400         64
  24.0586         68
  24.0771         68
  24.0957         91
  24.1143         85
  24.1329         76
  24.1514         79
  24.1700         82
  24.1886         73
  24.2072         74
  24.2257         77
  24.2443         79
  24.2629         81
  24.2815         80
  24.3000         74
  24.3186         81
  24.3372         71
  24.3558         82
  24.3744         70
  24.3929         87
  24.4115         90
  24.4301         65
  24.4487         82
  24.4672         77
  24.4858         83
  24.5044         69
  24.5230         78
  24.5415         80
  24.5601         61
  24.5787         66
  24.5973         70
  24.6158         80
  24.6344         68
  24.6530         80
  24.6716         76
  24.6901         77
  24.7087         73
  24.7273         60
  24.7459         57
  24.7644         75
  24.7830         81
  24.8016         71
  24.8202         64
  24.8387         63
  24.8573         74
  24.8759         86
  24.8945         66
  24.9130         69
  24.9316         80
  24.9502         73
  24.9688         66
  24.9873         71
  25.0059         68
  25.0245         69
  25.0431         77
  25.0616         69
  25.0802         69
  25.0988         62
  25.1174         75
  25.1360         73
  25.1545         72
  25.1731         74
  25.1917         53
  25.2103         68
  25.2288         73
  25.2474         64
  25.2660         69
  25.2846         76
  25.3031         66
  25.3217         66
  25.3403         67
  25.3589         64
  25.3774         61
  25.3960         57
  25.4146         60
  25.4332         68
  25.4517         72
  25.4703         65
  25.4889         61
  25.5075         73
  25.5260         78
  25.5446         63
  25.5632         82
  25.5818         86
  25.6003         66
  25.6189         82
  25.6375         71
  25.6561         74
  25.6746         66
  25.6932         76
  25.7118         88
  25.7304         62
  25.7489         63
  25.7675         79
  25.7861         73
  25.8047         83
  25.8232         72
  25.8418         75
  25.8604         68
  25.8790         62
  25.8976         71
  25.9161         79
  25.9347         64
  25.9533         66
  25.9719         70
  25.9904         68
  26.0090         69
  26.0276         65
  26.0462         60
  26.0647         86
  26.0833         69
  26.1019         65
  26.1205         80
  26.1390         88
  26.1576         73
  26.1762         72
  26.1948         67
  26.2133         85
  26.2319         59
  26.2505         61
  26.2691         68
  26.2876         59
  26.3062         70
  26.3248         66
  26.3434         72
  26.3619         66
  26.3805         67
  26.3991         66
  26.4177         62
  26.4362         70
  26.4548         91
  26.4734         69
  26.4920         77
  26.5105         56
  26.5291         75
  26.5477         64
  26.5663         51
  26.5848         74
  26.6034         67
  26.6220         70
  26.6406         73
  26.6591         68
  26.6777         59
  26.6963         65
  26.7149         70
  26.7335         64
  26.7520         63
  26.7706         72
  26.7892         60
  26.8078         51
  26.8263         85
  26.8449         69
  26.8635         70
  26.8821         64
  26.9006         62
  26.9192         71
  26.9378         59
  26.9564         70
  26.9749         79
  26.9935         70
  27.0121         55
  27.0307         47
  27.0492         64
  27.0678         67
  27.0864         60
  27.1050         63
  27.1235         75
  27.1421         80
  27.1607         90
  27.1793         79
  27.1978         89
  27.2164         91
  27.2350         76
  27.2536         75
  27.2721         78
  27.2907         68
  27.3093         73
  27.3279         71
  27.3464         69
  27.3650         87
  27.3836         77
  27.4022         68
  27.4207         67
  27.4393         45
  27.4579         73
  27.4765         63
  27.4951         68
  27.5136         69
  27.5322         56
  27.5508         81
  27.5694         65
  27.5879         72
  27.6065         58
  27.6251         70
  27.6437         57
  27.6622         69
  27.6808         74
  27.6994         59
  27.7180         66
  27.7365         60
  27.7551         72
  27.7737         67
  27.7923         61
  27.8108         63
  27.8294         58
  27.8480         69
  27.8666         47
  27.8851         57
  27.9037         59
  27.9223         69
  27.9409         75
  27.9594         61
  27.9780         70
  27.9966         62
  28.0152         50
  28.0337         72
  28.0523         70
  28.0709         59
  28.0895         74
  28.1080         66
  28.1266         68
  28.1452         76
  28.1638         51
  28.1823         64
  28.2009         61
  28.2195         69
  28.2381         73
  28.2567         66
  28.2752         64
  28.2938         74
  28.3124         60
  28.3310         54
  28.3495         54
  28.3681         61
  28.3867         68
  28.4053         57
  28.4238         58
  28.4424         55
  28.4610         71
  28.4796         53
  28.4981         56
  28.5167         53
  28.5353         62
  28.5539         61
  28.5724         47
  28.5910         65
  28.6096         68
  28.6282         69
  28.6467         67
  28.6653         63
  28.6839         69
  28.7025         62
  28.7210         63
  28.7396         64
  28.7582         54
  28.7768         52
  28.7953         58
  28.8139         64
  28.8325         59
  28.8511         53
  28.8696         55
  28.8882         54
  28.9068         65
  28.9254         58
  28.9439         63
  28.9625         59
  28.9811         60
  28.9997         65
  29.0183         64
  29.0368         61
  29.0554         57
  29.0740         61
  29.0926         56
  29.1111         61
  29.1297         71
  29.1483         46
  29.1669         44
  29.1854         43
  29.2040         54
  29.2226         44
  29.2412         57
  29.2597         63
  29.2783         64
  29.2969         60
  29.3155         58
  29.3340         53
  29.3526         60
  29.3712         62
  29.3898         52
  29.4083         51
  29.4269         55
  29.4455         52
  29.4641         61
  29.4826         69
  29.5012         50
  29.5198         57
  29.5384         53
  29.5569         54
  29.5755         56
  29.5941         58
  29.6127         56
  29.6312         61
  29.6498         58
  29.6684         44
  29.6870         60
  29.7055         58
  29.7241         53
  29.7427         68
  29.7613         59
  29.7799         49
  29.7984         67
  29.8170         49
  29.8356         59
  29.8542         53
  29.8727         61
  29.8913         51
  29.9099         46
  29.9285         45
  29.9470         59
  29.9656         66
  29.9842         64
  30.0028         62
  30.0213         51
  30.0399         58
  30.0585         54
  30.0771         55
  30.0956         51
  30.1142         58
  30.1328         58
  30.1514         61
  30.1699         59
  30.1885         60
  30.2071         74
  30.2257         75
  30.2442         59
  30.2628         65
  30.2814         72
  30.3000         74
  30.3185         72
  30.3371         95
  30.3557         95
  30.3743        132
  30.3928        103
  30.4114         93
  30.4300         72
  30.4486         97
  30.4671         76
  30.4857         59
  30.5043         52
  30.5229         62
  30.5415         61
  30.5600         59
  30.5786         52
  30.5972         64
  30.6158         53
  30.6343         57
  30.6529         52
  30.6715         57
  30.6901         45
  30.7086         58
  30.7272         44
  30.7458         59
  30.7644         47
  30.7829         56
  30.8015         61
  30.8201         72
  30.8387         55
  30.8572         55
  30.8758         51
  30.8944         49
  30.9130         59
  30.9315         58
  30.9501         40
  30.9687         60
  30.9873         52
  31.0058         52
  31.0244         53
  31.0430         54
  31.0616         51
  31.0801         43
  31.0987         64
  31.1173         59
  31.1359         59
  31.1544         44
  31.1730         38
  31.1916         54
  31.2102         64
  31.2287         47
  31.2473         45
  31.2659         47
  31.2845         48
  31.3030         35
  31.3216         46
  31.3402         44
  31.3588         52
  31.3774         51
  31.3959         44
  31.4145         57
  31.4331         57
  31.4517         51
  31.4702         66
  31.4888         47
  31.5074         57
  31.5260         49
  31.5445         46
  31.5631         38
  31.5817         51
  31.6003         53
  31.6188         58
  31.6374         50
  31.6560         39
  31.6746         48
  31.6931         59
  31.7117         49
  31.7303         40
  31.7489         64
  31.7674         49
  31.7860         54
  31.8046         51
  31.8232         50
  31.8417         49
  31.8603         57
  31.8789         39
  31.8975         47
  31.9160         47
  31.9346         35
  31.9532         41
  31.9718         45
  31.9903         48
  32.0089         51
  32.0275         52
  32.0461         58
  32.0646         50
  32.0832         54
  32.1018         47
  32.1204         48
  32.1390         69
  32.1575         59
  32.1761         46
  32.1947         54
  32.2133         61
  32.2318         52
  32.2504         37
  32.2690         44
  32.2876         56
  32.3061         44
  32.3247         40
  32.3433         51
  32.3619         49
  32.3804         52
  32.3990         53
  32.4176         55
  32.4362         60
  32.4547         42
  32.4733         54
  32.4919         52
  32.5105         56
  32.5290         47
  32.5476         50
  32.5662         49
  32.5848         50
  32.6033         50
  32.6219         37
  32.6405         52
  32.6591         48
  32.6776         47
  32.6962         41
  32.7148         55
  32.7334         47
  32.7519         42
  32.7705         46
  32.7891         40
  32.8077         51
  32.8262         49
  32.8448         49
  32.8634         55
  32.8820         44
  32.9006         49
  32.9191         49
  32.9377         51
  32.9563         31
  32.9749         50
  32.9934         33
  33.0120         44
  33.0306         47
  33.0492         53
  33.0677         54
  33.0863         41
  33.1049         33
  33.1235         33
  33.1420         35
  33.1606         42
  33.1792         48
  33.1978         52
  33.2163         55
  33.2349         40
  33.2535         47
  33.2721         38
  33.2906         38
  33.3092         43
  33.3278         38
  33.3464         43
  33.3649         45
  33.3835         43
  33.4021         45
  33.4207         38
  33.4392         45
  33.4578         44
  33.4764         38
  33.4950         37
  33.5135         38
  33.5321         36
  33.5507         45
  33.5693         45
  33.5878         42
  33.6064         50
  33.6250         47
  33.6436         49
  33.6622         38
  33.6807         46
  33.6993         50
  33.7179         37
  33.7365         35
  33.7550         40
  33.7736         39
  33.7922         49
  33.8108         40
  33.8293         36
  33.8479         50
  33.8665         44
  33.8851         37
  33.9036         44
  33.9222         35
  33.9408         41
  33.9594         29
  33.9779         45
  33.9965         36
  34.0151         36
  34.0337         45
  34.0522         50
  34.0708         53
  34.0894         36
  34.1080         53
  34.1265         29
  34.1451         30
  34.1637         48
  34.1823         54
  34.2008         37
  34.2194         31
  34.2380         37
  34.2566         39
  34.2751         42
  34.2937         37
  34.3123         46
  34.3309         41
  34.3494         46
  34.3680         33
  34.3866         47
  34.4052         35
  34.4238         47
  34.4423         27
  34.4609         33
  34.4795         32
  34.4981         41
  34.5166         42
  34.5352         43
  34.5538         33
  34.5724         49
  34.5909         51
  34.6095         42
  34.6281         38
  34.6467         57
  34.6652         51
  34.6838         44
  34.7024         53
  34.7210         55
  34.7395         54
  34.7581         63
  34.7767         49
  34.7953         64
  34.8138         41
  34.8324         53
  34.8510         40
  34.8696         49
  34.8881         44
  34.9067         43
  34.9253         37
  34.9439         34
  34.9624         47
  34.9810         33
  34.9996         49
  35.0182         36
  35.0367         33
  35.0553         49
  35.0739         41
  35.0925         36
  35.1110         52
  35.1296         44
  35.1482         27
  35.1668         29
  35.1854         37
  35.2039         32
  35.2225         42
  35.2411         41
  35.2597         36
  35.2782         40
  35.2968         40
  35.3154         36
  35.3340         31
  35.3525         52
  35.3711         44
  35.3897         37
  35.4083         40
  35.4268         43
  35.4454         28
  35.4640         17
  35.4826         41
  35.5011         45
  35.5197         36
  35.5383         35
  35.5569         35
  35.5754         26
  35.5940         46
  35.6126         41
  35.6312         45
  35.6497         35
  35.6683         45
  35.6869         41
  35.7055         32
  35.7240         26
  35.7426         37
  35.7612         36
  35.7798         42
  35.7983         42
  35.8169         53
  35.8355         39
  35.8541         52
  35.8726         42
  35.8912         26
  35.9098         31
  35.9284         34
  35.9469         38
  35.9655         38
  35.9841         41
  36.0027         42
  36.0213         33
  36.0398         36
  36.0584         33
  36.0770         40
  36.0956         32
  36.1141         31
  36.1327         32
  36.1513         32
  36.1699         49
  36.1884         28
  36.2070         28
  36.2256         37
  36.2442         42
  36.2627         33
  36.2813         26
  36.2999         33
  36.3185         28
  36.3370         34
  36.3556         47
  36.3742         37
  36.3928         38
  36.4113         42
  36.4299         27
  36.4485         36
  36.4671         26
  36.4856         37
  36.5042         31
  36.5228         32
  36.5414         37
  36.5599         39
  36.5785         35
  36.5971         31
  36.6157         36
  36.6342         32
  36.6528         27
  36.6714         29
  36.6900         33
  36.7085         41
  36.7271         19
  36.7457         28
  36.7643         27
  36.7829         31
  36.8014         38
  36.8200         36
  36.8386         20
  36.8572         36
  36.8757         20
  36.8943         22
  36.9129         39
  36.9315         36
  36.9500         43
  36.9686         26
  36.9872         28
  37.0058         30
  37.0243         23
  37.0429         33
  37.0615         33
  37.0801         28
  37.0986         29
  37.1172         30
  37.1358         39
  37.1544         38
  37.1729         36
  37.1915         41
  37.2101         22
  37.2287         36
  37.2472         42
  37.2658         37
  37.2844         36
  37.3030         39
  37.3215         42
  37.3401         34
  37.3587         36
  37.3773         41
  37.3958         50
  37.4144         52
  37.4330         50
  37.4516         56
  37.4701         34
  37.4887         31
  37.5073         42
  37.5259         44
  37.5445         35
  37.5630         26
  37.5816         30
  37.6002         43
  37.6188         29
  37.6373         30
  37.6559         41
  37.6745         25
  37.6931         28
  37.7116         35
  37.7302         32
  37.7488         32
  37.7674         30
  37.7859         29
  37.8045         34
  37.8231         33
  37.8417         31
  37.8602         31
  37.8788         19
  37.8974         29
  37.9160         41
  37.9345         37
  37.9531         33
  37.9717         30
  37.9903         30
  38.0088         30
  38.0274         22
  38.0460         34
  38.0646         32
  38.0831         32
  38.1017         32
  38.1203         28
  38.1389         30
  38.1574         23
  38.1760         27
  38.1946         41
  38.2132         24
  38.2317         25
  38.2503         26
  38.2689         28
  38.2875         24
  38.3061         24
  38.3246         20
  38.3432         20
  38.3618         25
  38.3804         24
  38.3989         30
  38.4175         28
  38.4361         38
  38.4547         31
  38.4732         32
  38.4918         34
  38.5104         29
  38.5290         26
  38.5475         30
  38.5661         35
  38.5847         37
  38.6033         30
  38.6218         29
  38.6404         29
  38.6590         34
  38.6776         26
  38.6961         24
  38.7147         32
  38.7333         29
  38.7519         26
  38.7704         25
  38.7890         34
  38.8076         32
  38.8262         23
  38.8447         29
  38.8633         31
  38.8819         34
  38.9005         26
  38.9190         34
  38.9376         27
  38.9562         26
  38.9748         27
  38.9933         31
  39.0119         40
  39.0305         35
  39.0491         25
  39.0677         29
  39.0862         30
  39.1048         31
  39.1234         29
  39.1420         30
  39.1605         26
  39.1791         24
  39.1977         29
  39.2163         33
  39.2348         31
  39.2534         34
  39.2720         29
  39.2906         41
  39.3091         33
  39.3277         32
  39.3463         40
  39.3649         26
  39.3834         30
  39.4020         29
  39.4206         24
  39.4392         25
  39.4577         21
  39.4763         23
  39.4949         25
  39.5135         28
  39.5320         28
  39.5506         20
  39.5692         25
  39.5878         33
  39.6063         27
  39.6249         39
  39.6435         30
  39.6621         24
  39.6806         23
  39.6992         34
  39.7178         28
  39.7364         29
  39.7549         28
  39.7735         32
  39.7921         22
  39.8107         33
  39.8293         23
  39.8478         39
  39.8664         35
  39.8850         34
  39.9036         26
  39.9221         31
  39.9407         24
  39.9593         33
  39.9779         24
  39.9964         29
  40.0150         25
  40.0336         34
  40.0522         20
  40.0707         24
  40.0893         19
  40.1079         20
  40.1265         27
  40.1450         30
  40.1636         28
  40.1822         27
  40.2008         22
  40.2193         25
  40.2379         22
  40.2565         31
  40.2751         25
  40.2936         32
  40.3122         32
  40.3308         28
  40.3494         19
  40.3679         32
  40.3865         21
  40.4051         23
  40.4237         24
  40.4422         29
  40.4608         38
  40.4794         33
  40.4980         27
  40.5165         36
  40.5351         27
  40.5537         28
  40.5723         24
  40.5908         29
  40.6094         27
  40.6280         23
  40.6466         34
  40.6652         30
  40.6837         14
  40.7023         38
  40.7209         25
  40.7395         23
  40.7580         29
  40.7766         25
  40.7952         22
  40.8138         35
  40.8323         25
  40.8509         19
  40.8695         29
  40.8881         37
  40.9066         29
  40.9252         35
  40.9438         25
  40.9624         28
  40.9809         32
  40.9995         30
  41.0181         27
  41.0367         32
  41.0552         29
  41.0738         31
  41.0924         31
  41.1110         30
  41.1295         35
  41.1481         32
  41.1667         31
  41.1853         14
  41.2038         30
  41.2224         27
  41.2410         27
  41.2596         23
  41.2781         28
  41.2967         32
  41.3153         23
  41.3339         24
  41.3524         23
  41.3710         26
  41.3896         29
  41.4082         23
  41.4268         42
  41.4453         28
  41.4639         28
  41.4825         22
  41.5011         28
  41.5196         29
  41.5382         22
  41.5568         21
  41.5754         33
  41.5939         24
  41.6125         21
  41.6311         30
  41.6497         28
  41.6682         26
  41.6868         31
  41.7054         33
  41.7240         26
  41.7425         21
  41.7611         23
  41.7797         20
  41.7983         22
  41.8168         27
  41.8354         16
  41.8540         29
  41.8726         31
  41.8911         24
  41.9097         26
  41.9283         31
  41.9469         30
  41.9654         31
  41.9840         27
  42.0026         30
  42.0212         24
  42.0397         40
  42.0583         32
  42.0769         27
  42.0955         20
  42.1140         17
  42.1326         27
  42.1512         32
  42.1698         23
  42.1884         28
  42.2069         32
  42.2255         26
  42.2441         30
  42.2627         27
  42.2812         29
  42.2998         15
  42.3184         32
  42.3370         36
  42.3555         37
  42.3741         15
  42.3927         34
  42.4113         44
  42.4298         33
  42.4484         29
  42.4670         33
  42.4856         29
  42.5041         23
  42.5227         25
  42.5413         35
  42.5599         30
  42.5784         23
  42.5970         28
  42.6156         26
  42.6342         28
  42.6527         17
  42.6713         24
  42.6899         27
  42.7085         29
  42.7270         28
  42.7456         24
  42.7642         23
  42.7828         32
  42.8013         20
  42.8199         16
  42.8385         30
  42.8571         28
  42.8756         27
  42.8942         29
  42.9128         24
  42.9314         27
  42.9500         44
  42.9685         30
  42.9871         27
  43.0057         38
  43.0243         27
  43.0428         27
  43.0614         26
  43.0800         33
  43.0986         24
  43.1171         28
  43.1357         23
  43.1543         32
  43.1729         35
  43.1914         32
  43.2100         34
  43.2286         33
  43.2472         34
  43.2657         29
  43.2843         28
  43.3029         33
  43.3215         29
  43.3400         36
  43.3586         27
  43.3772         31
  43.3958         16
  43.4143         30
  43.4329         32
  43.4515         49
  43.4701         45
  43.4886         46
  43.5072         47
  43.5258         25
  43.5444         27
  43.5629         28
  43.5815         44
  43.6001         43
  43.6187         45
  43.6372         32
  43.6558         35
  43.6744         32
  43.6930         29
  43.7116         38
  43.7301         26
  43.7487         29
  43.7673         19
  43.7859         25
  43.8044         38
  43.8230         17
  43.8416         22
  43.8602         31
  43.8787         20
  43.8973         25
  43.9159         29
  43.9345         18
  43.9530         12
  43.9716         24
  43.9902         27
  44.0088         27
  44.0273         25
  44.0459         29
  44.0645         39
  44.0831         24
  44.1016         23
  44.1202         26
  44.1388         25
  44.1574         30
  44.1759         32
  44.1945         22
  44.2131         25
  44.2317         24
  44.2502         27
  44.2688         30
  44.2874         27
  44.3060         30
  44.3245         18
  44.3431         31
  44.3617         24
  44.3803         28
  44.3988         38
  44.4174         32
  44.4360         25
  44.4546         33
  44.4732         21
  44.4917         38
  44.5103         33
  44.5289         24
  44.5475         21
  44.5660         27
  44.5846         33
  44.6032         32
  44.6218         18
  44.6403         30
  44.6589         37
  44.6775         24
  44.6961         34
  44.7146         27
  44.7332         28
  44.7518         35
  44.7704         20
  44.7889         26
  44.8075         31
  44.8261         30
  44.8447         22
  44.8632         14
  44.8818         16
  44.9004         38
  44.9190         35
  44.9375         27
  44.9561         18
  44.9747         28
  44.9933         23
  45.0118         30
  45.0304         10
  45.0490         33
  45.0676         37
  45.0861         28
  45.1047         29
  45.1233         26
  45.1419         14
  45.1604         20
  45.1790         21
  45.1976         15
  45.2162         31
  45.2347         24
  45.2533         26
  45.2719         30
  45.2905         28
  45.3091         19
  45.3276         21
  45.3462         35
  45.3648         35
  45.3834         18
  45.4019         26
  45.4205         35
  45.4391         32
  45.4577         18
  45.4762         27
  45.4948         31
  45.5134         22
  45.5320         19
  45.5505         29
  45.5691         26
  45.5877         22
  45.6063         26
  45.6248         24
  45.6434         20
  45.6620         19
  45.6806         21
  45.6991         32
  45.7177         25
  45.7363         26
  45.7549         32
  45.7734         30
  45.7920         37
  45.8106         33
  45.8292         24
  45.8477         18
  45.8663         32
  45.8849         23
  45.9035         24
  45.9220         19
  45.9406         18
  45.9592         27
  45.9778         20
  45.9963         30
  46.0149         24
  46.0335         33
  46.0521         20
  46.0707         26
  46.0892         29
  46.1078         21
  46.1264         26
  46.1450         20
  46.1635         23
  46.1821         27
  46.2007         19
  46.2193         21
  46.2378         23
  46.2564         25
  46.2750         28
  46.2936         21
  46.3121         18
  46.3307         18
  46.3493         25
  46.3679         24
  46.3864         16
  46.4050         29
  46.4236         25
  46.4422         22
  46.4607         26
  46.4793         20
  46.4979         20
  46.5165         20
  46.5350         24
  46.5536         29
  46.5722         17
  46.5908         22
  46.6093         26
  46.6279         24
  46.6465         28
  46.6651         29
  46.6836         35
  46.7022         32
  46.7208         13
  46.7394         21
  46.7579         22
  46.7765         22
  46.7951         21
  46.8137         26
  46.8323         35
  46.8508         22
  46.8694         21
  46.8880         29
  46.9066         36
  46.9251         19
  46.9437         31
  46.9623         31
  46.9809         26
  46.9994         23
  47.0180         23
  47.0366         27
  47.0552         23
  47.0737         30
  47.0923         24
  47.1109         31
  47.1295         23
  47.1480         33
  47.1666         28
  47.1852         19
  47.2038         23
  47.2223         19
  47.2409         31
  47.2595         27
  47.2781         20
  47.2966         20
  47.3152         23
  47.3338         27
  47.3524         28
  47.3709         18
  47.3895         27
  47.4081         21
  47.4267         29
  47.4452         22
  47.4638         24
  47.4824         21
  47.5010         20
  47.5195         21
  47.5381         20
  47.5567         18
  47.5753         26
  47.5939         22
  47.6124         28
  47.6310         28
  47.6496         24
  47.6682         18
  47.6867         19
  47.7053         23
  47.7239         26
  47.7425         25
  47.7610         24
  47.7796         32
  47.7982         26
  47.8168         25
  47.8353         18
  47.8539         22
  47.8725         22
  47.8911         26
  47.9096         24
  47.9282         21
  47.9468         20
  47.9654         23
  47.9839         31
  48.0025         26
  48.0211         15
  48.0397         28
  48.0582         25
  48.0768         15
  48.0954         28
  48.1140         18
  48.1325         18
  48.1511         17
  48.1697         21
  48.1883         17
  48.2068         25
  48.2254         22
  48.2440         23
  48.2626         24
  48.2811         25
  48.2997         24
  48.3183         27
  48.3369         19
  48.3555         23
  48.3740         30
  48.3926         19
  48.4112         16
  48.4298         21
  48.4483         22
  48.4669         24
  48.4855         30
  48.5041         26
  48.5226         21
  48.5412         15
  48.5598         30
  48.5784         20
  48.5969         31
  48.6155         17
  48.6341         23
  48.6527         28
  48.6712         28
  48.6898         21
  48.7084         22
  48.7270         22
  48.7455         18
  48.7641         15
  48.7827         30
  48.8013         27
  48.8198         19
  48.8384         24
  48.8570         18
  48.8756         26
  48.8941         20
  48.9127         38
  48.9313         34
  48.9499         39
  48.9684         38
  48.9870         32
  49.0056         32
  49.0242         35
  49.0427         27
  49.0613         26
  49.0799         44
  49.0985         39
  49.1171         20
  49.1356         24
  49.1542         23
  49.1728         24
  49.1914         31
  49.2099         25
  49.2285         28
  49.2471         19
  49.2657         23
  49.2842         20
  49.3028         12
  49.3214         34
  49.3400         15
  49.3585         26
  49.3771         18
  49.3957         29
  49.4143         25
  49.4328         24
  49.4514         24
  49.4700         22
  49.4886         21
  49.5071         20
  49.5257         23
  49.5443         26
  49.5629         27
  49.5814         30
  49.6000         23
  49.6186         27
  49.6372         20
  49.6557         15
  49.6743         24
  49.6929         29
  49.7115         24
  49.7300         18
  49.7486         20
  49.7672         23
  49.7858         16
  49.8043         31
  49.8229         14
  49.8415         36
  49.8601         26
  49.8786         26
  49.8972         23
  49.9158         13
  49.9344         16
  49.9530         20
  49.9715         17
  49.9901         11
  50.0087         27
  50.0273         34
  50.0458         22
  50.0644         20
  50.0830         30
  50.1016         28
  50.1201         11
  50.1387         27
  50.1573         24
  50.1759         28
  50.1944         29
  50.2130         29
  50.2316         23
  50.2502         22
  50.2687         23
  50.2873         16
  50.3059         23
  50.3245         20
  50.3430         30
  50.3616         18
  50.3802         20
  50.3988         24
  50.4173         12
  50.4359         17
  50.4545         31
  50.4731         14
  50.4916         23
  50.5102         22
  50.5288         29
  50.5474         18
  50.5659         20
  50.5845         21
  50.6031         27
  50.6217         19
  50.6402         26
  50.6588         20
  50.6774         24
  50.6960         22
  50.7146         26
  50.7331         26
  50.7517         23
  50.7703         26
  50.7889         18
  50.8074         22
  50.8260         19
  50.8446         16
  50.8632         23
  50.8817         23
  50.9003         15
  50.9189         21
  50.9375         20
  50.9560         32
  50.9746         29
  50.9932         21
  51.0118         22
  51.0303         18
  51.0489         18
  51.0675         19
  51.0861         16
  51.1046         25
  51.1232         24
  51.1418         21
  51.1604         24
  51.1789         16
  51.1975         24
  51.2161         13
  51.2347         24
  51.2532         26
  51.2718         15
  51.2904         22
  51.3090         17
  51.3275         20
  51.3461         27
  51.3647         32
  51.3833         27
  51.4018         24
  51.4204         23
  51.4390         20
  51.4576         13
  51.4762         20
  51.4947         19
  51.5133         15
  51.5319         25
  51.5505         27
  51.5690         20
  51.5876         21
  51.6062         28
  51.6248         25
  51.6433         23
  51.6619         27
  51.6805         26
  51.6991         28
  51.7176         18
  51.7362         32
  51.7548         25
  51.7734         22
  51.7919         30
  51.8105         23
  51.8291         27
  51.8477         28
  51.8662         26
  51.8848         25
  51.9034         21
  51.9220         19
  51.9405         23
  51.9591         11
  51.9777         17
  51.9963         27
  52.0148         22
  52.0334         21
  52.0520         26
  52.0706         29
  52.0891         31
  52.1077         24
  52.1263         24
  52.1449         29
  52.1634         22
  52.1820         21
  52.2006         15
  52.2192         23
  52.2378         25
  52.2563         22
  52.2749         21
  52.2935         17
  52.3121         23
  52.3306         17
  52.3492         31
  52.3678         20
  52.3864         21
  52.4049         25
  52.4235         23
  52.4421         24
  52.4607         25
  52.4792         24
  52.4978         23
  52.5164         26
  52.5350         22
  52.5535         27
  52.5721         26
  52.5907         16
  52.6093         25
  52.6278         17
  52.6464         18
  52.6650         23
  52.6836         27
  52.7021         27
  52.7207         25
  52.7393         18
  52.7579         25
  52.7764         19
  52.7950         18
  52.8136         18
  52.8322         16
  52.8507         20
  52.8693         31
  52.8879         24
  52.9065         16
  52.9250         30
  52.9436         26
  52.9622         32
  52.9808         18
  52.9994         29
  53.0179         24
  53.0365         37
  53.0551         29
  53.0737         21
  53.0922         19
  53.1108         19
  53.1294         16
  53.1480         25
  53.1665         21
  53.1851         15
  53.2037         16
  53.2223         17
  53.2408         19
  53.2594         23
  53.2780         30
  53.2966         23
  53.3151         24
  53.3337         26
  53.3523         21
  53.3709         25
  53.3894         13
  53.4080         17
  53.4266         14
  53.4452         22
  53.4637         15
  53.4823         17
  53.5009         18
  53.5195         22
  53.5380         19
  53.5566         18
  53.5752         24
  53.5938         32
  53.6123         23
  53.6309         22
  53.6495         22
  53.6681         23
  53.6866         21
  53.7052         16
  53.7238         24
  53.7424         24
  53.7610         22
  53.7795         23
  53.7981         30
  53.8167         21
  53.8353         29
  53.8538         15
  53.8724         13
  53.8910         20
  53.9096         17
  53.9281         31
  53.9467         19
  53.9653         39
  53.9839         28
  54.0024         27
  54.0210         22
  54.0396         34
  54.0582         21
  54.0767         19
  54.0953         18
  54.1139         28
  54.1325         27
  54.1510         26
  54.1696         28
  54.1882         21
  54.2068         16
  54.2253         17
  54.2439         24
  54.2625         25
  54.2811         16
  54.2996         17
  54.3182         26
  54.3368         23
  54.3554         24
  54.3739         19
  54.3925         18
  54.4111         22
  54.4297         24
  54.4482         27
  54.4668         16
  54.4854         32
  54.5040         21
  54.5225         23
  54.5411         22
  54.5597         17
  54.5783         22
  54.5969         24
  54.6154         12
  54.6340         24
  54.6526         36
  54.6712         26
  54.6897         11
  54.7083         20
  54.7269          9
  54.7455         28
  54.7640         14
  54.7826         12
  54.8012         24
  54.8198         21
  54.8383         18
  54.8569         21
  54.8755         19
  54.8941         18
  54.9126         27
  54.9312         21
  54.9498         12
  54.9684         20
  54.9869         18
  55.0055         16
  55.0241         31
  55.0427         19
  55.0612         19
  55.0798         18
  55.0984         19
  55.1170         23
  55.1355         21
  55.1541         14
  55.1727         17
  55.1913         19
  55.2098         21
  55.2284         24
  55.2470         27
  55.2656         17
  55.2841         26
  55.3027         23
  55.3213         28
  55.3399         15
  55.3585         21
  55.3770         25
  55.3956         28
  55.4142         24
  55.4328         15
  55.4513         14
  55.4699         17
  55.4885         16
  55.5071         18
  55.5256         18
  55.5442         22
  55.5628         17
  55.5814         16
  55.5999         22
  55.6185         17
  55.6371         19
  55.6557         23
  55.6742         16
  55.6928         35
  55.7114         21
  55.7300         21
  55.7485         20
  55.7671         22
  55.7857         22
  55.8043         18
  55.8228         26
  55.8414         19
  55.8600         18
  55.8786         25
  55.8971         16
  55.9157         23
  55.9343         19
  55.9529         28
  55.9714         21
  55.9900         17
  56.0086         19
  56.0272         16
  56.0457         27
  56.0643         23
  56.0829         20
  56.1015         22
  56.1201         21
  56.1386         17
  56.1572         24
  56.1758         25
  56.1944         25
  56.2129         19
  56.2315         22
  56.2501         26
  56.2687         22
  56.2872         26
  56.3058         23
  56.3244         12
  56.3430         28
  56.3615         24
  56.3801         24
  56.3987         19
  56.4173         19
  56.4358         19
  56.4544         27
  56.4730         13
  56.4916         21
  56.5101         18
  56.5287         25
  56.5473         27
  56.5659         15
  56.5844         31
  56.6030         19
  56.6216         28
  56.6402         23
  56.6587         22
  56.6773         24
  56.6959         20
  56.7145         21
  56.7330         24
  56.7516         21
  56.7702         24
  56.7888         19
  56.8073         21
  56.8259         21
  56.8445         18
  56.8631         13
  56.8817         25
  56.9002         20
  56.9188         18
  56.9374         17
  56.9560         20
  56.9745         22
  56.9931         31
  57.0117         26
  57.0303         10
  57.0488         17
  57.0674         17
  57.0860         11
  57.1046         26
  57.1231         24
  57.1417         17
  57.1603         13
  57.1789         15
  57.1974         24
  57.2160         23
  57.2346         21
  57.2532         20
  57.2717         22
  57.2903         27
  57.3089         13
  57.3275         18
  57.3460         12
  57.3646         23
  57.3832         14
  57.4018         19
  57.4203         18
  57.4389         28
  57.4575         25
  57.4761         10
  57.4946         17
  57.5132         28
  57.5318         15
  57.5504         20
  57.5689         16
  57.5875         23
  57.6061         15
  57.6247         30
  57.6433         14
  57.6618         15
  57.6804         26
  57.6990         25
  57.7176         18
  57.7361         27
  57.7547         13
  57.7733         18
  57.7919         26
  57.8104         26
  57.8290         28
  57.8476         18
  57.8662         14
  57.8847         23
  57.9033         20
  57.9219         13
  57.9405         19
  57.9590         15
  57.9776         23
  57.9962         14
  58.0148         16
  58.0333         28
  58.0519         26
  58.0705         26
  58.0891         25
  58.1076         15
  58.1262         13
  58.1448         30
  58.1634         18
  58.1819         24
  58.2005         16
  58.2191         19
  58.2377         28
  58.2562         23
  58.2748         18
  58.2934         20
  58.3120         19
  58.3305         24
  58.3491         19
  58.3677         25
  58.3863         21
  58.4049         17
  58.4234         22
  58.4420         18
  58.4606         29
  58.4792         28
  58.4977         27
  58.5163         19
  58.5349         14
  58.5535         22
  58.5720         14
  58.5906         20
  58.6092         18
  58.6278         22
  58.6463         22
  58.6649         19
  58.6835         19
  58.7021         26
  58.7206         17
  58.7392         20
  58.7578         21
  58.7764         20
  58.7949         20
  58.8135         17
  58.8321         13
  58.8507         22
  58.8692         21
  58.8878         19
  58.9064         23
  58.9250         27
  58.9435         15
  58.9621         16
  58.9807         19
  58.9993         20
  59.0178         19
  59.0364         27
  59.0550         24
  59.0736         24
  59.0921         22
  59.1107         31
  59.1293         25
  59.1479         13
  59.1664         13
  59.1850         23
  59.2036         25
  59.2222         13
  59.2408         27
  59.2593         17
  59.2779         15
  59.2965         19
  59.3151         22
  59.3336         16
  59.3522         16
  59.3708         16
  59.3894         23
  59.4079         16
  59.4265         16
  59.4451         17
  59.4637         22
  59.4822         14
  59.5008         19
  59.5194         21
  59.5380         14
  59.5565         29
  59.5751         16
  59.5937         13
  59.6123         16
  59.6308         13
  59.6494         18
  59.6680         16
  59.6866         25
  59.7051         17
  59.7237         21
  59.7423         22
  59.7609         12
  59.7794         20
  59.7980         17
  59.8166         22
  59.8352         26
  59.8537         14
  59.8723         17
  59.8909         18
  59.9095         24
  59.9280         20
  59.9466         16
  59.9652         25
  59.9838         17
  60.0024         20
