; (content of file Y:\Sam\Apurva-07-20-2022\puck4\ML_20220718_35_SJD_0_LaB6-2min.raw)
_FILEVERSION = 3
_SAMPLE = ML_20220718_35_SJD_0_LaB6-2min
_+SAMPLE = 
_SITE = USA
_USER = Administrator
_GONIOMETER_CODE = 20
; Goniometer : D8 theta/2theta, stage : Unknown
_ATTACHMENTS_CODE = 0
_GONIOMETER_RADIUS = 200.5
_FIXED_DIVSLIT = 0.6
_FIXED_SAMPLESLIT = 0
_SOLLER_SLITS = 2
_FIXED_DETSLIT = 9.55
_MONOCHROMATOR = 0
; Incident beam monochromator : None
_SOLLER_SLITS_2 = N
_THIN_FILM = N
_BETA_FILTER = Y
_FIXED_ANTISLIT = 5.89
_ANALYZER_CODE = 0
; Received beam analyzer : None
_DATEMEASURED = "26-Jul-2022 09:01:39"
_WL_UNIT = A
_WL1 = 1.5406
_WL2 = 1.54439
_WL3 = 1.39222
_WLRATIO = 0.5
_ANODE = Cu
_V4_INF_CREATOR = XRDWizard
_V4_INF_CREATOR_VERSION = V2.9.0.22
_V4_INF_WIZARD_VERSION = V2.9.0.22
_V4_INF_WIZARD_ADDINS = V2.9.0.22
_V4_INF_WIZARD_DOCTYPE = XRD
_V4_INF_OSUSER = McQueenLab
_V4_INF_USER = Administrator
_V4_INF_SITE = USA
_V4_INF_SAMPLEID = ML_20220718_35_SJD_0_LaB6-2min

; Data for range 1
_DRIVE = COUPLED
_STEPTIME = 5.64
_STEPSIZE = 0.0185756
_STEPMODE = C
_START = 5
_THETA = 2.5
_2THETA = 5
_KHI = 0
_PHI = 0
_X = 0
_Y = 0
_Z = 0
_DETECTOR = 5
; Detector type : Unknown
_DETECTORSLIT = unkn
_AUX1 = 0
_AUX2 = 0
_AUX3 = 0
_TIMESTARTED = 15
_TEMP_RATE = -1
_TEMP_DELAY = -1
_KV = 40
_MA = 40
_RANGE_WL = 1.5406
_3DPLANE = 0
_V4_ADDITIONALDETECTOR = 257
_V4_PSD2THETA = 3.4189
_V4_PSDCHANNEL1 = 0
_V4_PSDAPERTURE = 12.68
_V4_PSDTYPE = 5
_V4_PSDFIXED = 0
_V4_COUNTERS_MASK = 4096
_V4_DRIVES_MASK = 0
_V4_ENCODERS_MASK = 0
_2THETACOUNTS = 1
; 2THETA  PSD
   5.0000        135
   5.0186        103
   5.0372        139
   5.0557        120
   5.0743         97
   5.0929        113
   5.1115        117
   5.1300        131
   5.1486        132
   5.1672        111
   5.1858         93
   5.2043        126
   5.2229        114
   5.2415        135
   5.2601         99
   5.2786        123
   5.2972        135
   5.3158        111
   5.3344        124
   5.3529        131
   5.3715        115
   5.3901        142
   5.4087        138
   5.4272        123
   5.4458        105
   5.4644        110
   5.4830        100
   5.5015         98
   5.5201        118
   5.5387        118
   5.5573        104
   5.5758         89
   5.5944        111
   5.6130        119
   5.6316        129
   5.6501        112
   5.6687         95
   5.6873        109
   5.7059        104
   5.7244        115
   5.7430         95
   5.7616         88
   5.7802         97
   5.7988         77
   5.8173        126
   5.8359         91
   5.8545        106
   5.8731         93
   5.8916        109
   5.9102        102
   5.9288         96
   5.9474        102
   5.9659        101
   5.9845        107
   6.0031         98
   6.0217        107
   6.0402         92
   6.0588         92
   6.0774         83
   6.0960        100
   6.1145         99
   6.1331         80
   6.1517        112
   6.1703        110
   6.1888        106
   6.2074         92
   6.2260         96
   6.2446        108
   6.2631         91
   6.2817         94
   6.3003         91
   6.3189        107
   6.3374         82
   6.3560         94
   6.3746        102
   6.3932        102
   6.4117         94
   6.4303         77
   6.4489         87
   6.4675         89
   6.4860        105
   6.5046         79
   6.5232         87
   6.5418         91
   6.5604         86
   6.5789         84
   6.5975         80
   6.6161         95
   6.6347        107
   6.6532         86
   6.6718         89
   6.6904         84
   6.7090         80
   6.7275         77
   6.7461         86
   6.7647         90
   6.7833         81
   6.8018         87
   6.8204         82
   6.8390         62
   6.8576         88
   6.8761         87
   6.8947         93
   6.9133         82
   6.9319         79
   6.9504         61
   6.9690         70
   6.9876         82
   7.0062         81
   7.0247         79
   7.0433         66
   7.0619         59
   7.0805         88
   7.0990         81
   7.1176         62
   7.1362         80
   7.1548         73
   7.1733         84
   7.1919         98
   7.2105         81
   7.2291         82
   7.2476         92
   7.2662         66
   7.2848         93
   7.3034         78
   7.3220         75
   7.3405         69
   7.3591         97
   7.3777         78
   7.3963         81
   7.4148         79
   7.4334         94
   7.4520         82
   7.4706         76
   7.4891         85
   7.5077         69
   7.5263         83
   7.5449         89
   7.5634         81
   7.5820         82
   7.6006         81
   7.6192         85
   7.6377         75
   7.6563         80
   7.6749         99
   7.6935         97
   7.7120        102
   7.7306         85
   7.7492        100
   7.7678         82
   7.7863         94
   7.8049         94
   7.8235         88
   7.8421         97
   7.8606         87
   7.8792         82
   7.8978         76
   7.9164         90
   7.9349         96
   7.9535         76
   7.9721        112
   7.9907        101
   8.0092         97
   8.0278         89
   8.0464         92
   8.0650         83
   8.0835         92
   8.1021        102
   8.1207         84
   8.1393         97
   8.1579         87
   8.1764         85
   8.1950         88
   8.2136         96
   8.2322        105
   8.2507         92
   8.2693         77
   8.2879         71
   8.3065         75
   8.3250         96
   8.3436        104
   8.3622         76
   8.3808         88
   8.3993         95
   8.4179        112
   8.4365        102
   8.4551         87
   8.4736         85
   8.4922         86
   8.5108         92
   8.5294         89
   8.5479         90
   8.5665        102
   8.5851         86
   8.6037         98
   8.6222         84
   8.6408         98
   8.6594        115
   8.6780         92
   8.6965        116
   8.7151        108
   8.7337         95
   8.7523        116
   8.7708        100
   8.7894         95
   8.8080        105
   8.8266        104
   8.8451        103
   8.8637        107
   8.8823         92
   8.9009        104
   8.9195         94
   8.9380         94
   8.9566        119
   8.9752         96
   8.9938        101
   9.0123        105
   9.0309        117
   9.0495        119
   9.0681        101
   9.0866         95
   9.1052        101
   9.1238        107
   9.1424        113
   9.1609        120
   9.1795        104
   9.1981        115
   9.2167         97
   9.2352        110
   9.2538        110
   9.2724        100
   9.2910        108
   9.3095         95
   9.3281         96
   9.3467        117
   9.3653        126
   9.3838        114
   9.4024        103
   9.4210        108
   9.4396        117
   9.4581        110
   9.4767         97
   9.4953        110
   9.5139        128
   9.5324        119
   9.5510        122
   9.5696         92
   9.5882        127
   9.6067         96
   9.6253        107
   9.6439        107
   9.6625        110
   9.6811        112
   9.6996        103
   9.7182         95
   9.7368        109
   9.7554        120
   9.7739        114
   9.7925        109
   9.8111        112
   9.8297        115
   9.8482        118
   9.8668        116
   9.8854        109
   9.9040        129
   9.9225        116
   9.9411        131
   9.9597        122
   9.9783        112
   9.9968        110
  10.0154        123
  10.0340        123
  10.0526        114
  10.0711        113
  10.0897        124
  10.1083        131
  10.1269        132
  10.1454        125
  10.1640        124
  10.1826        111
  10.2012        118
  10.2197         97
  10.2383        129
  10.2569        121
  10.2755        112
  10.2940        109
  10.3126         99
  10.3312        142
  10.3498        115
  10.3683        125
  10.3869        123
  10.4055        136
  10.4241        114
  10.4427        128
  10.4612        133
  10.4798        131
  10.4984        116
  10.5170        109
  10.5355        110
  10.5541        122
  10.5727        145
  10.5913        102
  10.6098        120
  10.6284        115
  10.6470        120
  10.6656        121
  10.6841        120
  10.7027        138
  10.7213        123
  10.7399        128
  10.7584        100
  10.7770        114
  10.7956        104
  10.8142        100
  10.8327        139
  10.8513        123
  10.8699        122
  10.8885        127
  10.9070        122
  10.9256        123
  10.9442        115
  10.9628        133
  10.9813        113
  10.9999        131
  11.0185        132
  11.0371        117
  11.0556        108
  11.0742        121
  11.0928        103
  11.1114        120
  11.1299        114
  11.1485        120
  11.1671        117
  11.1857        137
  11.2043        116
  11.2228        108
  11.2414        121
  11.2600        118
  11.2786        133
  11.2971        119
  11.3157        115
  11.3343        118
  11.3529        114
  11.3714        141
  11.3900        114
  11.4086        124
  11.4272        119
  11.4457        123
  11.4643        130
  11.4829        126
  11.5015        115
  11.5200        115
  11.5386        107
  11.5572        113
  11.5758        135
  11.5943        103
  11.6129        133
  11.6315        111
  11.6501        135
  11.6686        117
  11.6872        118
  11.7058        102
  11.7244         90
  11.7429        104
  11.7615        107
  11.7801        141
  11.7987        113
  11.8172        124
  11.8358        105
  11.8544        117
  11.8730        135
  11.8915        126
  11.9101        122
  11.9287        130
  11.9473        106
  11.9659         92
  11.9844         98
  12.0030        109
  12.0216        116
  12.0402        124
  12.0587        125
  12.0773        112
  12.0959        124
  12.1145        118
  12.1330        106
  12.1516        104
  12.1702         98
  12.1888         93
  12.2073        135
  12.2259         97
  12.2445        117
  12.2631        116
  12.2816        112
  12.3002        118
  12.3188        142
  12.3374        114
  12.3559        123
  12.3745        105
  12.3931        110
  12.4117        120
  12.4302         96
  12.4488        115
  12.4674        112
  12.4860         92
  12.5045        105
  12.5231         95
  12.5417         95
  12.5603        104
  12.5788        120
  12.5974         84
  12.6160        130
  12.6346         89
  12.6531        104
  12.6717         99
  12.6903        108
  12.7089         96
  12.7274        121
  12.7460        110
  12.7646         98
  12.7832        107
  12.8018        100
  12.8203        111
  12.8389         88
  12.8575         99
  12.8761         92
  12.8946         87
  12.9132        111
  12.9318        106
  12.9504        102
  12.9689         98
  12.9875         99
  13.0061         99
  13.0247        109
  13.0432         97
  13.0618        123
  13.0804        116
  13.0990        106
  13.1175        100
  13.1361        112
  13.1547        107
  13.1733        103
  13.1918        104
  13.2104         96
  13.2290        104
  13.2476         98
  13.2661         87
  13.2847        112
  13.3033        114
  13.3219        108
  13.3404        113
  13.3590        124
  13.3776        102
  13.3962        114
  13.4147         99
  13.4333         95
  13.4519         91
  13.4705        113
  13.4890         96
  13.5076         82
  13.5262         90
  13.5448         97
  13.5634         97
  13.5819         88
  13.6005         70
  13.6191         83
  13.6377        106
  13.6562        107
  13.6748         88
  13.6934        110
  13.7120         95
  13.7305         86
  13.7491         87
  13.7677         98
  13.7863        102
  13.8048         93
  13.8234        101
  13.8420         92
  13.8606        110
  13.8791         85
  13.8977         96
  13.9163         91
  13.9349         90
  13.9534         83
  13.9720         95
  13.9906         99
  14.0092        111
  14.0277         86
  14.0463         89
  14.0649         85
  14.0835         98
  14.1020         90
  14.1206         90
  14.1392         98
  14.1578         84
  14.1763         77
  14.1949         89
  14.2135         70
  14.2321         90
  14.2506         92
  14.2692         69
  14.2878         97
  14.3064         82
  14.3250        103
  14.3435         72
  14.3621         87
  14.3807         82
  14.3993         97
  14.4178         80
  14.4364         85
  14.4550         94
  14.4736         65
  14.4921         83
  14.5107         87
  14.5293         92
  14.5479         84
  14.5664         90
  14.5850         94
  14.6036         75
  14.6222        108
  14.6407         88
  14.6593         82
  14.6779         80
  14.6965         75
  14.7150         78
  14.7336         87
  14.7522         82
  14.7708         72
  14.7893         65
  14.8079         72
  14.8265         79
  14.8451         53
  14.8636         73
  14.8822         89
  14.9008         92
  14.9194         80
  14.9379         87
  14.9565         97
  14.9751         65
  14.9937         79
  15.0122         89
  15.0308         95
  15.0494         77
  15.0680         88
  15.0866         91
  15.1051         74
  15.1237         90
  15.1423         80
  15.1609         84
  15.1794         82
  15.1980         68
  15.2166         78
  15.2352         77
  15.2537         86
  15.2723         88
  15.2909         80
  15.3095         96
  15.3280         83
  15.3466        104
  15.3652         93
  15.3838         74
  15.4023         85
  15.4209         76
  15.4395        102
  15.4581         83
  15.4766         91
  15.4952         89
  15.5138         86
  15.5324         82
  15.5509         73
  15.5695         89
  15.5881         98
  15.6067         68
  15.6252         61
  15.6438         74
  15.6624         84
  15.6810         98
  15.6995         88
  15.7181         82
  15.7367         73
  15.7553         82
  15.7738         88
  15.7924         81
  15.8110         72
  15.8296         73
  15.8482         82
  15.8667         87
  15.8853         83
  15.9039         79
  15.9225         78
  15.9410         74
  15.9596        109
  15.9782         89
  15.9968         54
  16.0153         77
  16.0339         75
  16.0525         85
  16.0711         68
  16.0896         67
  16.1082         85
  16.1268         90
  16.1454         95
  16.1639         83
  16.1825         82
  16.2011         72
  16.2197         80
  16.2382         78
  16.2568         88
  16.2754         69
  16.2940         75
  16.3125         87
  16.3311         89
  16.3497         91
  16.3683         89
  16.3868         75
  16.4054         82
  16.4240         70
  16.4426         88
  16.4611         89
  16.4797         82
  16.4983         78
  16.5169         86
  16.5354         85
  16.5540         79
  16.5726         88
  16.5912         94
  16.6097         79
  16.6283         91
  16.6469         92
  16.6655         79
  16.6841        103
  16.7026         83
  16.7212         83
  16.7398         83
  16.7584         79
  16.7769         77
  16.7955         89
  16.8141         86
  16.8327         89
  16.8512         73
  16.8698         81
  16.8884         82
  16.9070         86
  16.9255        102
  16.9441         85
  16.9627         64
  16.9813         73
  16.9998         79
  17.0184         90
  17.0370         88
  17.0556         63
  17.0741         73
  17.0927         58
  17.1113         90
  17.1299         90
  17.1484         83
  17.1670         78
  17.1856         96
  17.2042         84
  17.2227         76
  17.2413         82
  17.2599         80
  17.2785         94
  17.2970         86
  17.3156         91
  17.3342         77
  17.3528         71
  17.3713         83
  17.3899         76
  17.4085         72
  17.4271         78
  17.4457         71
  17.4642         73
  17.4828         79
  17.5014         75
  17.5200         71
  17.5385         83
  17.5571         84
  17.5757         75
  17.5943         97
  17.6128         79
  17.6314         86
  17.6500         85
  17.6686         73
  17.6871         66
  17.7057         76
  17.7243         68
  17.7429         92
  17.7614         66
  17.7800         65
  17.7986         78
  17.8172         94
  17.8357         72
  17.8543         78
  17.8729         87
  17.8915         69
  17.9100         77
  17.9286         87
  17.9472         95
  17.9658         91
  17.9843         82
  18.0029         78
  18.0215         93
  18.0401         90
  18.0586         79
  18.0772         85
  18.0958         73
  18.1144         69
  18.1329         97
  18.1515         88
  18.1701         81
  18.1887         76
  18.2073         85
  18.2258         86
  18.2444         84
  18.2630         90
  18.2816         90
  18.3001         88
  18.3187         78
  18.3373         82
  18.3559         75
  18.3744         92
  18.3930         92
  18.4116         83
  18.4302         87
  18.4487         83
  18.4673         74
  18.4859         70
  18.5045         81
  18.5230         92
  18.5416         72
  18.5602         70
  18.5788         86
  18.5973         72
  18.6159         83
  18.6345         76
  18.6531         71
  18.6716         81
  18.6902         81
  18.7088         73
  18.7274         76
  18.7459         75
  18.7645         97
  18.7831         86
  18.8017         76
  18.8202         72
  18.8388         89
  18.8574         90
  18.8760         89
  18.8945         82
  18.9131         79
  18.9317         81
  18.9503         77
  18.9689         85
  18.9874         83
  19.0060         74
  19.0246         76
  19.0432         79
  19.0617         92
  19.0803         68
  19.0989         88
  19.1175         95
  19.1360         93
  19.1546         88
  19.1732         80
  19.1918         81
  19.2103         88
  19.2289         84
  19.2475         90
  19.2661         86
  19.2846         72
  19.3032         73
  19.3218         89
  19.3404         77
  19.3589         91
  19.3775         87
  19.3961         82
  19.4147         77
  19.4332         93
  19.4518         76
  19.4704         89
  19.4890         92
  19.5075         88
  19.5261         93
  19.5447         76
  19.5633         78
  19.5818         91
  19.6004         86
  19.6190         78
  19.6376         89
  19.6561         91
  19.6747         84
  19.6933         81
  19.7119         93
  19.7305         91
  19.7490        102
  19.7676        101
  19.7862         86
  19.8048         78
  19.8233         99
  19.8419         88
  19.8605         86
  19.8791         73
  19.8976         86
  19.9162         88
  19.9348         91
  19.9534         90
  19.9719         96
  19.9905        111
  20.0091         81
  20.0277         90
  20.0462         77
  20.0648        101
  20.0834         94
  20.1020         73
  20.1205         83
  20.1391         78
  20.1577         79
  20.1763         78
  20.1948         86
  20.2134         88
  20.2320         90
  20.2506         75
  20.2691         89
  20.2877         89
  20.3063         97
  20.3249         88
  20.3434         78
  20.3620         96
  20.3806         81
  20.3992         97
  20.4177         80
  20.4363         79
  20.4549        104
  20.4735         96
  20.4921         99
  20.5106         97
  20.5292         87
  20.5478         96
  20.5664        103
  20.5849         80
  20.6035         82
  20.6221         77
  20.6407        109
  20.6592         98
  20.6778         77
  20.6964         98
  20.7150         96
  20.7335         96
  20.7521         99
  20.7707         98
  20.7893         96
  20.8078         86
  20.8264         88
  20.8450         72
  20.8636         78
  20.8821         85
  20.9007         92
  20.9193        104
  20.9379        102
  20.9564         98
  20.9750         88
  20.9936         93
  21.0122         96
  21.0307         92
  21.0493         86
  21.0679         95
  21.0865        108
  21.1050         92
  21.1236        114
  21.1422        122
  21.1608        116
  21.1793        122
  21.1979        141
  21.2165        140
  21.2351        132
  21.2537        143
  21.2722        133
  21.2908        157
  21.3094        175
  21.3280        163
  21.3465        240
  21.3651        257
  21.3837        196
  21.4023        156
  21.4208        174
  21.4394        135
  21.4580        105
  21.4766        113
  21.4951        108
  21.5137         93
  21.5323         89
  21.5509        101
  21.5694         92
  21.5880        109
  21.6066        102
  21.6252         96
  21.6437         88
  21.6623         92
  21.6809         89
  21.6995        116
  21.7180         77
  21.7366         90
  21.7552         80
  21.7738         93
  21.7923         90
  21.8109         79
  21.8295        108
  21.8481        107
  21.8666         88
  21.8852         97
  21.9038         96
  21.9224        103
  21.9409         93
  21.9595         85
  21.9781        109
  21.9967        101
  22.0152         85
  22.0338        129
  22.0524         82
  22.0710         89
  22.0896         79
  22.1081         88
  22.1267         82
  22.1453        103
  22.1639        108
  22.1824        111
  22.2010         89
  22.2196        101
  22.2382        100
  22.2567        108
  22.2753        116
  22.2939        119
  22.3125         87
  22.3310        109
  22.3496         76
  22.3682         86
  22.3868         99
  22.4053         87
  22.4239         94
  22.4425        111
  22.4611        104
  22.4796         93
  22.4982         87
  22.5168         97
  22.5354        103
  22.5539         96
  22.5725         89
  22.5911        105
  22.6097        115
  22.6282         99
  22.6468        104
  22.6654        106
  22.6840        107
  22.7025        102
  22.7211         85
  22.7397         81
  22.7583         85
  22.7768         88
  22.7954         94
  22.8140         89
  22.8326         78
  22.8512         95
  22.8697         94
  22.8883         92
  22.9069        102
  22.9255        102
  22.9440        108
  22.9626         99
  22.9812         93
  22.9998        101
  23.0183         98
  23.0369         74
  23.0555         96
  23.0741         68
  23.0926         92
  23.1112        105
  23.1298         97
  23.1484        110
  23.1669         75
  23.1855         96
  23.2041         91
  23.2227         86
  23.2412         91
  23.2598         85
  23.2784         91
  23.2970        103
  23.3155        110
  23.3341         81
  23.3527         92
  23.3713         95
  23.3898         84
  23.4084         89
  23.4270        109
  23.4456        115
  23.4641        101
  23.4827         99
  23.5013        116
  23.5199         98
  23.5384        108
  23.5570         88
  23.5756         90
  23.5942         98
  23.6128        106
  23.6313         89
  23.6499        115
  23.6685        110
  23.6871        125
  23.7056        106
  23.7242         82
  23.7428         87
  23.7614         96
  23.7799         93
  23.7985         97
  23.8171        100
  23.8357         95
  23.8542        100
  23.8728        104
  23.8914        104
  23.9100         95
  23.9285        102
  23.9471        118
  23.9657         99
  23.9843         98
  24.0028        113
  24.0214        102
  24.0400         94
  24.0586        105
  24.0771        103
  24.0957         96
  24.1143        100
  24.1329         82
  24.1514         87
  24.1700        102
  24.1886        107
  24.2072        114
  24.2257        109
  24.2443        119
  24.2629        115
  24.2815        118
  24.3000        108
  24.3186        104
  24.3372        134
  24.3558         99
  24.3744        112
  24.3929        104
  24.4115         82
  24.4301        121
  24.4487        113
  24.4672         92
  24.4858         91
  24.5044         82
  24.5230        102
  24.5415        110
  24.5601         95
  24.5787         84
  24.5973         93
  24.6158        108
  24.6344        104
  24.6530         95
  24.6716        102
  24.6901         84
  24.7087         95
  24.7273         99
  24.7459         91
  24.7644         96
  24.7830        103
  24.8016        104
  24.8202        106
  24.8387         93
  24.8573         88
  24.8759        104
  24.8945        100
  24.9130         88
  24.9316         95
  24.9502         94
  24.9688        103
  24.9873        103
  25.0059        104
  25.0245        118
  25.0431         86
  25.0616        105
  25.0802         95
  25.0988        100
  25.1174         93
  25.1360        102
  25.1545         94
  25.1731        102
  25.1917         92
  25.2103         93
  25.2288        100
  25.2474        104
  25.2660        104
  25.2846        103
  25.3031         86
  25.3217         95
  25.3403         86
  25.3589         96
  25.3774        106
  25.3960        108
  25.4146         85
  25.4332         94
  25.4517        118
  25.4703        109
  25.4889        113
  25.5075         98
  25.5260         98
  25.5446         96
  25.5632         84
  25.5818         92
  25.6003        105
  25.6189         88
  25.6375         89
  25.6561         87
  25.6746         86
  25.6932         99
  25.7118         79
  25.7304        104
  25.7489         85
  25.7675         96
  25.7861         98
  25.8047         92
  25.8232         84
  25.8418         95
  25.8604         93
  25.8790         90
  25.8976        110
  25.9161        108
  25.9347         94
  25.9533         94
  25.9719         91
  25.9904        107
  26.0090         94
  26.0276        101
  26.0462         96
  26.0647        109
  26.0833         82
  26.1019         81
  26.1205        103
  26.1390         99
  26.1576         84
  26.1762         96
  26.1948         94
  26.2133         94
  26.2319         79
  26.2505         87
  26.2691         75
  26.2876         89
  26.3062        103
  26.3248         76
  26.3434         88
  26.3619        120
  26.3805         87
  26.3991         88
  26.4177         83
  26.4362         95
  26.4548         96
  26.4734        102
  26.4920         98
  26.5105         90
  26.5291         98
  26.5477        111
  26.5663         99
  26.5848        116
  26.6034         90
  26.6220        106
  26.6406         86
  26.6591         93
  26.6777         81
  26.6963         80
  26.7149        108
  26.7335        102
  26.7520         99
  26.7706        102
  26.7892         94
  26.8078         91
  26.8263         96
  26.8449         99
  26.8635         92
  26.8821         94
  26.9006         90
  26.9192         97
  26.9378         81
  26.9564         82
  26.9749        100
  26.9935         96
  27.0121         80
  27.0307         92
  27.0492         95
  27.0678        115
  27.0864         92
  27.1050        105
  27.1235         89
  27.1421        119
  27.1607        115
  27.1793        104
  27.1978        127
  27.2164        127
  27.2350        124
  27.2536        110
  27.2721        110
  27.2907         97
  27.3093        105
  27.3279         97
  27.3464         82
  27.3650        107
  27.3836         93
  27.4022         87
  27.4207         95
  27.4393         94
  27.4579         84
  27.4765         77
  27.4951        110
  27.5136         73
  27.5322         79
  27.5508         90
  27.5694        103
  27.5879         93
  27.6065         84
  27.6251         98
  27.6437         93
  27.6622         96
  27.6808         96
  27.6994         90
  27.7180         91
  27.7365         94
  27.7551         84
  27.7737         94
  27.7923         82
  27.8108         94
  27.8294         94
  27.8480         88
  27.8666         87
  27.8851         73
  27.9037         70
  27.9223         72
  27.9409         89
  27.9594         83
  27.9780         91
  27.9966         87
  28.0152         93
  28.0337        103
  28.0523         85
  28.0709         99
  28.0895        100
  28.1080         90
  28.1266         94
  28.1452         84
  28.1638         89
  28.1823         91
  28.2009         85
  28.2195         94
  28.2381         98
  28.2567         81
  28.2752         75
  28.2938         68
  28.3124         93
  28.3310         83
  28.3495         83
  28.3681         84
  28.3867         84
  28.4053         83
  28.4238         79
  28.4424         76
  28.4610         89
  28.4796         78
  28.4981         85
  28.5167         75
  28.5353         88
  28.5539         79
  28.5724         78
  28.5910         84
  28.6096         79
  28.6282         77
  28.6467         95
  28.6653         81
  28.6839         99
  28.7025         70
  28.7210         67
  28.7396         77
  28.7582         96
  28.7768         90
  28.7953         75
  28.8139         83
  28.8325         84
  28.8511         89
  28.8696         85
  28.8882         68
  28.9068         80
  28.9254         82
  28.9439         95
  28.9625         88
  28.9811         85
  28.9997         85
  29.0183         72
  29.0368         75
  29.0554         68
  29.0740         91
  29.0926         66
  29.1111         93
  29.1297         91
  29.1483         76
  29.1669         86
  29.1854         81
  29.2040         83
  29.2226         67
  29.2412         75
  29.2597         76
  29.2783         65
  29.2969         79
  29.3155         67
  29.3340         94
  29.3526         89
  29.3712         77
  29.3898         74
  29.4083         87
  29.4269         85
  29.4455         82
  29.4641         83
  29.4826         72
  29.5012         69
  29.5198         72
  29.5384         72
  29.5569         66
  29.5755         81
  29.5941         66
  29.6127         75
  29.6312         66
  29.6498         70
  29.6684         67
  29.6870         72
  29.7055         61
  29.7241         75
  29.7427         87
  29.7613         78
  29.7799         88
  29.7984         60
  29.8170         74
  29.8356         75
  29.8542         78
  29.8727         76
  29.8913         90
  29.9099        101
  29.9285         85
  29.9470         80
  29.9656         74
  29.9842         74
  30.0028         89
  30.0213         77
  30.0399         75
  30.0585         84
  30.0771         79
  30.0956         75
  30.1142         68
  30.1328         71
  30.1514         78
  30.1699         79
  30.1885         79
  30.2071         64
  30.2257         84
  30.2442         65
  30.2628         81
  30.2814         73
  30.3000         80
  30.3185         86
  30.3371         94
  30.3557        126
  30.3743        155
  30.3928        169
  30.4114        120
  30.4300        125
  30.4486        131
  30.4671        129
  30.4857        111
  30.5043         94
  30.5229         75
  30.5415         78
  30.5600         70
  30.5786         80
  30.5972         81
  30.6158         85
  30.6343         80
  30.6529         85
  30.6715         88
  30.6901         69
  30.7086         81
  30.7272         73
  30.7458         74
  30.7644         65
  30.7829         67
  30.8015         71
  30.8201         75
  30.8387         83
  30.8572         76
  30.8758         63
  30.8944         72
  30.9130         68
  30.9315         69
  30.9501         66
  30.9687         69
  30.9873         65
  31.0058         83
  31.0244         77
  31.0430         65
  31.0616         66
  31.0801         66
  31.0987         70
  31.1173         72
  31.1359         67
  31.1544         75
  31.1730         72
  31.1916         61
  31.2102         81
  31.2287         68
  31.2473         64
  31.2659         75
  31.2845         59
  31.3030        100
  31.3216         73
  31.3402         83
  31.3588         70
  31.3774         72
  31.3959         69
  31.4145         61
  31.4331         71
  31.4517         62
  31.4702         67
  31.4888         82
  31.5074         69
  31.5260         81
  31.5445         62
  31.5631         75
  31.5817         54
  31.6003         75
  31.6188         68
  31.6374         82
  31.6560         78
  31.6746         55
  31.6931         65
  31.7117         66
  31.7303         66
  31.7489         76
  31.7674         76
  31.7860         71
  31.8046         91
  31.8232         76
  31.8417         59
  31.8603         73
  31.8789         75
  31.8975         57
  31.9160         67
  31.9346         76
  31.9532         54
  31.9718         79
  31.9903         76
  32.0089         60
  32.0275         60
  32.0461         67
  32.0646         52
  32.0832         69
  32.1018         67
  32.1204         69
  32.1390         78
  32.1575         67
  32.1761         62
  32.1947         53
  32.2133         60
  32.2318         71
  32.2504         67
  32.2690         64
  32.2876         62
  32.3061         52
  32.3247         62
  32.3433         77
  32.3619         83
  32.3804         69
  32.3990         64
  32.4176         71
  32.4362         72
  32.4547         87
  32.4733         64
  32.4919         70
  32.5105         58
  32.5290         68
  32.5476         73
  32.5662         71
  32.5848         57
  32.6033         87
  32.6219         55
  32.6405         73
  32.6591         66
  32.6776         68
  32.6962         59
  32.7148         68
  32.7334         61
  32.7519         64
  32.7705         51
  32.7891         63
  32.8077         67
  32.8262         65
  32.8448         60
  32.8634         62
  32.8820         70
  32.9006         70
  32.9191         55
  32.9377         68
  32.9563         70
  32.9749         78
  32.9934         58
  33.0120         75
  33.0306         58
  33.0492         65
  33.0677         60
  33.0863         61
  33.1049         59
  33.1235         63
  33.1420         61
  33.1606         56
  33.1792         56
  33.1978         69
  33.2163         51
  33.2349         69
  33.2535         43
  33.2721         70
  33.2906         66
  33.3092         59
  33.3278         60
  33.3464         72
  33.3649         70
  33.3835         57
  33.4021         51
  33.4207         65
  33.4392         67
  33.4578         57
  33.4764         56
  33.4950         72
  33.5135         65
  33.5321         59
  33.5507         50
  33.5693         75
  33.5878         68
  33.6064         50
  33.6250         58
  33.6436         52
  33.6622         49
  33.6807         57
  33.6993         50
  33.7179         50
  33.7365         56
  33.7550         58
  33.7736         58
  33.7922         62
  33.8108         71
  33.8293         52
  33.8479         45
  33.8665         71
  33.8851         66
  33.9036         50
  33.9222         54
  33.9408         74
  33.9594         61
  33.9779         62
  33.9965         55
  34.0151         57
  34.0337         45
  34.0522         63
  34.0708         59
  34.0894         54
  34.1080         57
  34.1265         57
  34.1451         50
  34.1637         51
  34.1823         60
  34.2008         44
  34.2194         63
  34.2380         54
  34.2566         62
  34.2751         72
  34.2937         52
  34.3123         48
  34.3309         76
  34.3494         55
  34.3680         39
  34.3866         64
  34.4052         46
  34.4238         51
  34.4423         69
  34.4609         48
  34.4795         61
  34.4981         50
  34.5166         57
  34.5352         55
  34.5538         54
  34.5724         57
  34.5909         58
  34.6095         54
  34.6281         81
  34.6467         57
  34.6652         42
  34.6838         56
  34.7024         55
  34.7210         66
  34.7395         96
  34.7581         82
  34.7767         79
  34.7953         74
  34.8138         60
  34.8324         59
  34.8510         78
  34.8696         66
  34.8881         81
  34.9067         69
  34.9253         49
  34.9439         54
  34.9624         53
  34.9810         60
  34.9996         54
  35.0182         47
  35.0367         55
  35.0553         46
  35.0739         59
  35.0925         66
  35.1110         59
  35.1296         54
  35.1482         42
  35.1668         49
  35.1854         43
  35.2039         61
  35.2225         47
  35.2411         51
  35.2597         56
  35.2782         58
  35.2968         55
  35.3154         46
  35.3340         49
  35.3525         42
  35.3711         49
  35.3897         53
  35.4083         53
  35.4268         52
  35.4454         53
  35.4640         43
  35.4826         44
  35.5011         59
  35.5197         51
  35.5383         49
  35.5569         50
  35.5754         63
  35.5940         58
  35.6126         56
  35.6312         49
  35.6497         58
  35.6683         47
  35.6869         52
  35.7055         46
  35.7240         38
  35.7426         47
  35.7612         41
  35.7798         57
  35.7983         56
  35.8169         51
  35.8355         60
  35.8541         52
  35.8726         57
  35.8912         37
  35.9098         40
  35.9284         54
  35.9469         40
  35.9655         54
  35.9841         54
  36.0027         57
  36.0213         39
  36.0398         55
  36.0584         42
  36.0770         38
  36.0956         50
  36.1141         39
  36.1327         44
  36.1513         47
  36.1699         45
  36.1884         37
  36.2070         52
  36.2256         49
  36.2442         44
  36.2627         51
  36.2813         56
  36.2999         57
  36.3185         59
  36.3370         45
  36.3556         56
  36.3742         41
  36.3928         53
  36.4113         51
  36.4299         51
  36.4485         44
  36.4671         48
  36.4856         58
  36.5042         41
  36.5228         34
  36.5414         49
  36.5599         47
  36.5785         50
  36.5971         42
  36.6157         46
  36.6342         48
  36.6528         50
  36.6714         47
  36.6900         33
  36.7085         44
  36.7271         42
  36.7457         45
  36.7643         42
  36.7829         44
  36.8014         42
  36.8200         34
  36.8386         53
  36.8572         56
  36.8757         48
  36.8943         53
  36.9129         41
  36.9315         42
  36.9500         53
  36.9686         53
  36.9872         42
  37.0058         45
  37.0243         37
  37.0429         47
  37.0615         54
  37.0801         46
  37.0986         44
  37.1172         43
  37.1358         50
  37.1544         49
  37.1729         34
  37.1915         42
  37.2101         39
  37.2287         45
  37.2472         48
  37.2658         53
  37.2844         35
  37.3030         41
  37.3215         42
  37.3401         39
  37.3587         55
  37.3773         59
  37.3958         42
  37.4144         64
  37.4330         70
  37.4516         62
  37.4701         65
  37.4887         49
  37.5073         56
  37.5259         49
  37.5445         66
  37.5630         55
  37.5816         64
  37.6002         53
  37.6188         44
  37.6373         48
  37.6559         38
  37.6745         46
  37.6931         40
  37.7116         41
  37.7302         35
  37.7488         44
  37.7674         50
  37.7859         50
  37.8045         40
  37.8231         46
  37.8417         53
  37.8602         48
  37.8788         41
  37.8974         29
  37.9160         49
  37.9345         37
  37.9531         49
  37.9717         28
  37.9903         36
  38.0088         47
  38.0274         37
  38.0460         45
  38.0646         41
  38.0831         38
  38.1017         40
  38.1203         51
  38.1389         40
  38.1574         32
  38.1760         46
  38.1946         39
  38.2132         34
  38.2317         42
  38.2503         40
  38.2689         38
  38.2875         37
  38.3061         45
  38.3246         45
  38.3432         41
  38.3618         41
  38.3804         32
  38.3989         47
  38.4175         41
  38.4361         41
  38.4547         37
  38.4732         49
  38.4918         34
  38.5104         30
  38.5290         36
  38.5475         42
  38.5661         44
  38.5847         37
  38.6033         36
  38.6218         31
  38.6404         38
  38.6590         47
  38.6776         35
  38.6961         61
  38.7147         36
  38.7333         43
  38.7519         47
  38.7704         41
  38.7890         41
  38.8076         55
  38.8262         51
  38.8447         54
  38.8633         39
  38.8819         48
  38.9005         46
  38.9190         35
  38.9376         36
  38.9562         41
  38.9748         51
  38.9933         36
  39.0119         44
  39.0305         38
  39.0491         45
  39.0677         35
  39.0862         36
  39.1048         46
  39.1234         44
  39.1420         49
  39.1605         39
  39.1791         50
  39.1977         44
  39.2163         51
  39.2348         56
  39.2534         37
  39.2720         43
  39.2906         50
  39.3091         41
  39.3277         40
  39.3463         41
  39.3649         41
  39.3834         38
  39.4020         48
  39.4206         42
  39.4392         33
  39.4577         54
  39.4763         36
  39.4949         50
  39.5135         39
  39.5320         22
  39.5506         31
  39.5692         47
  39.5878         27
  39.6063         54
  39.6249         42
  39.6435         37
  39.6621         42
  39.6806         35
  39.6992         41
  39.7178         45
  39.7364         36
  39.7549         37
  39.7735         35
  39.7921         50
  39.8107         38
  39.8293         35
  39.8478         40
  39.8664         43
  39.8850         35
  39.9036         26
  39.9221         32
  39.9407         32
  39.9593         41
  39.9779         39
  39.9964         32
  40.0150         40
  40.0336         48
  40.0522         33
  40.0707         36
  40.0893         31
  40.1079         34
  40.1265         42
  40.1450         35
  40.1636         38
  40.1822         45
  40.2008         35
  40.2193         30
  40.2379         40
  40.2565         40
  40.2751         33
  40.2936         35
  40.3122         41
  40.3308         48
  40.3494         46
  40.3679         42
  40.3865         32
  40.4051         36
  40.4237         39
  40.4422         35
  40.4608         40
  40.4794         37
  40.4980         37
  40.5165         38
  40.5351         40
  40.5537         33
  40.5723         40
  40.5908         30
  40.6094         29
  40.6280         34
  40.6466         35
  40.6652         33
  40.6837         39
  40.7023         37
  40.7209         35
  40.7395         42
  40.7580         37
  40.7766         37
  40.7952         28
  40.8138         33
  40.8323         49
  40.8509         37
  40.8695         46
  40.8881         33
  40.9066         36
  40.9252         42
  40.9438         53
  40.9624         42
  40.9809         39
  40.9995         41
  41.0181         38
  41.0367         27
  41.0552         42
  41.0738         46
  41.0924         38
  41.1110         39
  41.1295         39
  41.1481         50
  41.1667         44
  41.1853         31
  41.2038         48
  41.2224         41
  41.2410         47
  41.2596         33
  41.2781         44
  41.2967         41
  41.3153         42
  41.3339         42
  41.3524         40
  41.3710         32
  41.3896         43
  41.4082         43
  41.4268         34
  41.4453         27
  41.4639         46
  41.4825         41
  41.5011         40
  41.5196         29
  41.5382         41
  41.5568         43
  41.5754         48
  41.5939         26
  41.6125         42
  41.6311         26
  41.6497         28
  41.6682         33
  41.6868         43
  41.7054         35
  41.7240         38
  41.7425         48
  41.7611         37
  41.7797         36
  41.7983         40
  41.8168         32
  41.8354         39
  41.8540         29
  41.8726         36
  41.8911         34
  41.9097         40
  41.9283         26
  41.9469         24
  41.9654         31
  41.9840         31
  42.0026         51
  42.0212         34
  42.0397         33
  42.0583         37
  42.0769         34
  42.0955         40
  42.1140         36
  42.1326         31
  42.1512         41
  42.1698         35
  42.1884         43
  42.2069         49
  42.2255         44
  42.2441         32
  42.2627         44
  42.2812         39
  42.2998         39
  42.3184         31
  42.3370         41
  42.3555         30
  42.3741         37
  42.3927         47
  42.4113         34
  42.4298         32
  42.4484         54
  42.4670         31
  42.4856         34
  42.5041         36
  42.5227         35
  42.5413         34
  42.5599         42
  42.5784         36
  42.5970         42
  42.6156         34
  42.6342         29
  42.6527         36
  42.6713         39
  42.6899         42
  42.7085         49
  42.7270         45
  42.7456         43
  42.7642         44
  42.7828         41
  42.8013         44
  42.8199         31
  42.8385         45
  42.8571         35
  42.8756         40
  42.8942         35
  42.9128         49
  42.9314         29
  42.9500         38
  42.9685         30
  42.9871         31
  43.0057         28
  43.0243         44
  43.0428         41
  43.0614         29
  43.0800         30
  43.0986         35
  43.1171         39
  43.1357         47
  43.1543         36
  43.1729         45
  43.1914         35
  43.2100         41
  43.2286         46
  43.2472         49
  43.2657         45
  43.2843         39
  43.3029         50
  43.3215         49
  43.3400         39
  43.3586         43
  43.3772         35
  43.3958         45
  43.4143         46
  43.4329         41
  43.4515         52
  43.4701         49
  43.4886         59
  43.5072         74
  43.5258         68
  43.5444         56
  43.5629         56
  43.5815         59
  43.6001         52
  43.6187         62
  43.6372         69
  43.6558         48
  43.6744         35
  43.6930         40
  43.7116         42
  43.7301         37
  43.7487         45
  43.7673         38
  43.7859         40
  43.8044         26
  43.8230         40
  43.8416         43
  43.8602         37
  43.8787         37
  43.8973         33
  43.9159         43
  43.9345         33
  43.9530         34
  43.9716         34
  43.9902         37
  44.0088         38
  44.0273         42
  44.0459         28
  44.0645         29
  44.0831         39
  44.1016         42
  44.1202         31
  44.1388         33
  44.1574         30
  44.1759         32
  44.1945         35
  44.2131         40
  44.2317         35
  44.2502         36
  44.2688         35
  44.2874         38
  44.3060         46
  44.3245         29
  44.3431         33
  44.3617         47
  44.3803         40
  44.3988         42
  44.4174         31
  44.4360         37
  44.4546         41
  44.4732         40
  44.4917         40
  44.5103         26
  44.5289         46
  44.5475         41
  44.5660         38
  44.5846         33
  44.6032         41
  44.6218         29
  44.6403         40
  44.6589         36
  44.6775         37
  44.6961         39
  44.7146         44
  44.7332         42
  44.7518         47
  44.7704         32
  44.7889         43
  44.8075         42
  44.8261         31
  44.8447         35
  44.8632         43
  44.8818         33
  44.9004         45
  44.9190         41
  44.9375         36
  44.9561         31
  44.9747         30
  44.9933         35
  45.0118         42
  45.0304         42
  45.0490         37
  45.0676         31
  45.0861         30
  45.1047         34
  45.1233         31
  45.1419         36
  45.1604         33
  45.1790         43
  45.1976         36
  45.2162         31
  45.2347         40
  45.2533         30
  45.2719         33
  45.2905         40
  45.3091         31
  45.3276         25
  45.3462         37
  45.3648         39
  45.3834         30
  45.4019         29
  45.4205         39
  45.4391         28
  45.4577         34
  45.4762         33
  45.4948         33
  45.5134         48
  45.5320         35
  45.5505         27
  45.5691         32
  45.5877         25
  45.6063         35
  45.6248         39
  45.6434         30
  45.6620         37
  45.6806         27
  45.6991         27
  45.7177         36
  45.7363         31
  45.7549         30
  45.7734         34
  45.7920         37
  45.8106         30
  45.8292         25
  45.8477         36
  45.8663         48
  45.8849         43
  45.9035         32
  45.9220         28
  45.9406         35
  45.9592         49
  45.9778         27
  45.9963         31
  46.0149         37
  46.0335         27
  46.0521         33
  46.0707         37
  46.0892         36
  46.1078         35
  46.1264         31
  46.1450         40
  46.1635         30
  46.1821         29
  46.2007         27
  46.2193         40
  46.2378         34
  46.2564         31
  46.2750         31
  46.2936         39
  46.3121         34
  46.3307         30
  46.3493         46
  46.3679         39
  46.3864         24
  46.4050         34
  46.4236         36
  46.4422         38
  46.4607         38
  46.4793         34
  46.4979         31
  46.5165         27
  46.5350         25
  46.5536         39
  46.5722         32
  46.5908         23
  46.6093         18
  46.6279         41
  46.6465         33
  46.6651         26
  46.6836         26
  46.7022         31
  46.7208         40
  46.7394         38
  46.7579         39
  46.7765         34
  46.7951         26
  46.8137         38
  46.8323         27
  46.8508         37
  46.8694         27
  46.8880         33
  46.9066         30
  46.9251         35
  46.9437         32
  46.9623         34
  46.9809         32
  46.9994         26
  47.0180         39
  47.0366         28
  47.0552         31
  47.0737         28
  47.0923         34
  47.1109         23
  47.1295         33
  47.1480         27
  47.1666         32
  47.1852         26
  47.2038         36
  47.2223         31
  47.2409         26
  47.2595         23
  47.2781         24
  47.2966         27
  47.3152         35
  47.3338         30
  47.3524         39
  47.3709         29
  47.3895         39
  47.4081         29
  47.4267         31
  47.4452         27
  47.4638         36
  47.4824         29
  47.5010         30
  47.5195         35
  47.5381         31
  47.5567         28
  47.5753         28
  47.5939         30
  47.6124         27
  47.6310         31
  47.6496         32
  47.6682         25
  47.6867         33
  47.7053         28
  47.7239         32
  47.7425         16
  47.7610         29
  47.7796         26
  47.7982         34
  47.8168         36
  47.8353         32
  47.8539         29
  47.8725         26
  47.8911         31
  47.9096         29
  47.9282         29
  47.9468         30
  47.9654         27
  47.9839         36
  48.0025         24
  48.0211         37
  48.0397         33
  48.0582         33
  48.0768         35
  48.0954         37
  48.1140         28
  48.1325         35
  48.1511         36
  48.1697         32
  48.1883         31
  48.2068         30
  48.2254         25
  48.2440         32
  48.2626         33
  48.2811         22
  48.2997         44
  48.3183         43
  48.3369         37
  48.3555         37
  48.3740         32
  48.3926         31
  48.4112         38
  48.4298         26
  48.4483         29
  48.4669         32
  48.4855         30
  48.5041         33
  48.5226         35
  48.5412         48
  48.5598         29
  48.5784         32
  48.5969         35
  48.6155         43
  48.6341         38
  48.6527         35
  48.6712         27
  48.6898         36
  48.7084         37
  48.7270         36
  48.7455         30
  48.7641         37
  48.7827         30
  48.8013         27
  48.8198         44
  48.8384         32
  48.8570         40
  48.8756         36
  48.8941         36
  48.9127         55
  48.9313         45
  48.9499         60
  48.9684         61
  48.9870         48
  49.0056         31
  49.0242         39
  49.0427         33
  49.0613         46
  49.0799         44
  49.0985         40
  49.1171         45
  49.1356         31
  49.1542         32
  49.1728         28
  49.1914         29
  49.2099         35
  49.2285         26
  49.2471         28
  49.2657         26
  49.2842         23
  49.3028         42
  49.3214         33
  49.3400         30
  49.3585         31
  49.3771         31
  49.3957         23
  49.4143         29
  49.4328         30
  49.4514         28
  49.4700         40
  49.4886         34
  49.5071         16
  49.5257         32
  49.5443         39
  49.5629         35
  49.5814         28
  49.6000         30
  49.6186         18
  49.6372         43
  49.6557         38
  49.6743         33
  49.6929         39
  49.7115         28
  49.7300         39
  49.7486         23
  49.7672         29
  49.7858         31
  49.8043         26
  49.8229         33
  49.8415         33
  49.8601         23
  49.8786         32
  49.8972         27
  49.9158         39
  49.9344         34
  49.9530         34
  49.9715         21
  49.9901         26
  50.0087         39
  50.0273         24
  50.0458         35
  50.0644         39
  50.0830         28
  50.1016         44
  50.1201         34
  50.1387         35
  50.1573         30
  50.1759         34
  50.1944         30
  50.2130         31
  50.2316         27
  50.2502         24
  50.2687         29
  50.2873         33
  50.3059         39
  50.3245         37
  50.3430         37
  50.3616         37
  50.3802         30
  50.3988         38
  50.4173         35
  50.4359         43
  50.4545         31
  50.4731         33
  50.4916         26
  50.5102         23
  50.5288         28
  50.5474         25
  50.5659         31
  50.5845         40
  50.6031         33
  50.6217         35
  50.6402         34
  50.6588         28
  50.6774         36
  50.6960         34
  50.7146         27
  50.7331         22
  50.7517         20
  50.7703         29
  50.7889         32
  50.8074         31
  50.8260         28
  50.8446         29
  50.8632         33
  50.8817         33
  50.9003         38
  50.9189         32
  50.9375         30
  50.9560         22
  50.9746         35
  50.9932         29
  51.0118         31
  51.0303         29
  51.0489         32
  51.0675         30
  51.0861         26
  51.1046         30
  51.1232         29
  51.1418         24
  51.1604         27
  51.1789         31
  51.1975         30
  51.2161         27
  51.2347         26
  51.2532         34
  51.2718         32
  51.2904         26
  51.3090         26
  51.3275         36
  51.3461         34
  51.3647         45
  51.3833         41
  51.4018         33
  51.4204         37
  51.4390         31
  51.4576         31
  51.4762         35
  51.4947         37
  51.5133         31
  51.5319         37
  51.5505         30
  51.5690         29
  51.5876         29
  51.6062         26
  51.6248         29
  51.6433         29
  51.6619         23
  51.6805         37
  51.6991         23
  51.7176         32
  51.7362         45
  51.7548         33
  51.7734         40
  51.7919         40
  51.8105         37
  51.8291         34
  51.8477         42
  51.8662         36
  51.8848         31
  51.9034         40
  51.9220         22
  51.9405         35
  51.9591         34
  51.9777         22
  51.9963         27
  52.0148         23
  52.0334         33
  52.0520         28
  52.0706         26
  52.0891         32
  52.1077         38
  52.1263         29
  52.1449         33
  52.1634         25
  52.1820         27
  52.2006         35
  52.2192         30
  52.2378         30
  52.2563         34
  52.2749         30
  52.2935         27
  52.3121         18
  52.3306         21
  52.3492         36
  52.3678         22
  52.3864         28
  52.4049         26
  52.4235         33
  52.4421         28
  52.4607         22
  52.4792         25
  52.4978         24
  52.5164         28
  52.5350         35
  52.5535         29
  52.5721         32
  52.5907         32
  52.6093         25
  52.6278         34
  52.6464         35
  52.6650         33
  52.6836         24
  52.7021         29
  52.7207         33
  52.7393         27
  52.7579         24
  52.7764         26
  52.7950         28
  52.8136         30
  52.8322         18
  52.8507         24
  52.8693         24
  52.8879         27
  52.9065         31
  52.9250         39
  52.9436         30
  52.9622         30
  52.9808         34
  52.9994         40
  53.0179         26
  53.0365         23
  53.0551         28
  53.0737         35
  53.0922         33
  53.1108         18
  53.1294         37
  53.1480         29
  53.1665         30
  53.1851         27
  53.2037         22
  53.2223         27
  53.2408         24
  53.2594         39
  53.2780         26
  53.2966         18
  53.3151         28
  53.3337         27
  53.3523         21
  53.3709         27
  53.3894         28
  53.4080         29
  53.4266         27
  53.4452         31
  53.4637         28
  53.4823         40
  53.5009         26
  53.5195         34
  53.5380         27
  53.5566         33
  53.5752         21
  53.5938         27
  53.6123         28
  53.6309         30
  53.6495         32
  53.6681         33
  53.6866         22
  53.7052         31
  53.7238         19
  53.7424         32
  53.7610         43
  53.7795         27
  53.7981         30
  53.8167         29
  53.8353         30
  53.8538         35
  53.8724         23
  53.8910         31
  53.9096         30
  53.9281         27
  53.9467         43
  53.9653         27
  53.9839         48
  54.0024         38
  54.0210         44
  54.0396         36
  54.0582         37
  54.0767         39
  54.0953         30
  54.1139         29
  54.1325         38
  54.1510         38
  54.1696         34
  54.1882         33
  54.2068         29
  54.2253         37
  54.2439         35
  54.2625         24
  54.2811         30
  54.2996         20
  54.3182         33
  54.3368         27
  54.3554         32
  54.3739         32
  54.3925         24
  54.4111         34
  54.4297         29
  54.4482         29
  54.4668         39
  54.4854         37
  54.5040         32
  54.5225         20
  54.5411         26
  54.5597         31
  54.5783         29
  54.5969         30
  54.6154         21
  54.6340         21
  54.6526         23
  54.6712         24
  54.6897         34
  54.7083         24
  54.7269         21
  54.7455         29
  54.7640         22
  54.7826         31
  54.8012         31
  54.8198         35
  54.8383         27
  54.8569         24
  54.8755         26
  54.8941         28
  54.9126         33
  54.9312         33
  54.9498         28
  54.9684         33
  54.9869         19
  55.0055         23
  55.0241         30
  55.0427         25
  55.0612         22
  55.0798         31
  55.0984         26
  55.1170         26
  55.1355         31
  55.1541         26
  55.1727         24
  55.1913         29
  55.2098         31
  55.2284         33
  55.2470         28
  55.2656         29
  55.2841         28
  55.3027         22
  55.3213         29
  55.3399         23
  55.3585         35
  55.3770         23
  55.3956         39
  55.4142         33
  55.4328         30
  55.4513         27
  55.4699         23
  55.4885         29
  55.5071         24
  55.5256         24
  55.5442         32
  55.5628         24
  55.5814         21
  55.5999         22
  55.6185         31
  55.6371         31
  55.6557         31
  55.6742         23
  55.6928         31
  55.7114         26
  55.7300         25
  55.7485         35
  55.7671         25
  55.7857         35
  55.8043         27
  55.8228         26
  55.8414         29
  55.8600         24
  55.8786         18
  55.8971         25
  55.9157         25
  55.9343         27
  55.9529         37
  55.9714         35
  55.9900         30
  56.0086         32
  56.0272         34
  56.0457         26
  56.0643         29
  56.0829         27
  56.1015         27
  56.1201         33
  56.1386         21
  56.1572         34
  56.1758         25
  56.1944         42
  56.2129         29
  56.2315         32
  56.2501         35
  56.2687         26
  56.2872         28
  56.3058         32
  56.3244         20
  56.3430         29
  56.3615         30
  56.3801         37
  56.3987         29
  56.4173         30
  56.4358         32
  56.4544         28
  56.4730         26
  56.4916         28
  56.5101         29
  56.5287         31
  56.5473         39
  56.5659         28
  56.5844         33
  56.6030         36
  56.6216         26
  56.6402         27
  56.6587         25
  56.6773         30
  56.6959         34
  56.7145         24
  56.7330         22
  56.7516         26
  56.7702         26
  56.7888         26
  56.8073         27
  56.8259         25
  56.8445         33
  56.8631         32
  56.8817         20
  56.9002         25
  56.9188         24
  56.9374         26
  56.9560         34
  56.9745         38
  56.9931         24
  57.0117         34
  57.0303         33
  57.0488         31
  57.0674         16
  57.0860         34
  57.1046         30
  57.1231         28
  57.1417         26
  57.1603         26
  57.1789         28
  57.1974         28
  57.2160         27
  57.2346         24
  57.2532         28
  57.2717         28
  57.2903         19
  57.3089         31
  57.3275         24
  57.3460         20
  57.3646         25
  57.3832         35
  57.4018         24
  57.4203         27
  57.4389         29
  57.4575         26
  57.4761         20
  57.4946         28
  57.5132         31
  57.5318         37
  57.5504         23
  57.5689         31
  57.5875         24
  57.6061         29
  57.6247         25
  57.6433         36
  57.6618         26
  57.6804         34
  57.6990         34
  57.7176         30
  57.7361         29
  57.7547         33
  57.7733         33
  57.7919         33
  57.8104         24
  57.8290         26
  57.8476         32
  57.8662         33
  57.8847         34
  57.9033         23
  57.9219         25
  57.9405         34
  57.9590         23
  57.9776         33
  57.9962         26
  58.0148         25
  58.0333         20
  58.0519         34
  58.0705         24
  58.0891         25
  58.1076         31
  58.1262         19
  58.1448         32
  58.1634         38
  58.1819         29
  58.2005         39
  58.2191         27
  58.2377         25
  58.2562         34
  58.2748         25
  58.2934         23
  58.3120         29
  58.3305         24
  58.3491         35
  58.3677         25
  58.3863         28
  58.4049         26
  58.4234         33
  58.4420         28
  58.4606         25
  58.4792         28
  58.4977         31
  58.5163         25
  58.5349         21
  58.5535         27
  58.5720         26
  58.5906         30
  58.6092         19
  58.6278         33
  58.6463         29
  58.6649         25
  58.6835         33
  58.7021         24
  58.7206         25
  58.7392         32
  58.7578         22
  58.7764         30
  58.7949         26
  58.8135         24
  58.8321         20
  58.8507         26
  58.8692         23
  58.8878         22
  58.9064         32
  58.9250         27
  58.9435         23
  58.9621         25
  58.9807         32
  58.9993         21
  59.0178         26
  59.0364         39
  59.0550         28
  59.0736         31
  59.0921         24
  59.1107         24
  59.1293         30
  59.1479         25
  59.1664         25
  59.1850         19
  59.2036         26
  59.2222         18
  59.2408         26
  59.2593         25
  59.2779         28
  59.2965         23
  59.3151         24
  59.3336         36
  59.3522         26
  59.3708         22
  59.3894         25
  59.4079         37
  59.4265         30
  59.4451         29
  59.4637         26
  59.4822         31
  59.5008         35
  59.5194         34
  59.5380         33
  59.5565         31
  59.5751         29
  59.5937         33
  59.6123         32
  59.6308         26
  59.6494         25
  59.6680         28
  59.6866         19
  59.7051         36
  59.7237         23
  59.7423         24
  59.7609         42
  59.7794         25
  59.7980         27
  59.8166         25
  59.8352         23
  59.8537         22
  59.8723         28
  59.8909         30
  59.9095         29
  59.9280         19
  59.9466         18
  59.9652         27
  59.9838         25
  60.0024         25
