;,2THETA,
5.0000,131
5.0186,133
5.0372,142
5.0557,132
5.0743,134
5.0929,142
5.1115,146
5.1300,139
5.1486,136
5.1672,125
5.1858,131
5.2043,134
5.2229,131
5.2415,135
5.2601,149
5.2786,120
5.2972,132
5.3158,120
5.3344,128
5.3529,105
5.3715,109
5.3901,110
5.4087,98
5.4272,128
5.4458,117
5.4644,110
5.4830,131
5.5015,112
5.5201,120
5.5387,102
5.5573,124
5.5758,123
5.5944,116
5.6130,103
5.6316,123
5.6501,114
5.6687,99
5.6873,84
5.7059,92
5.7244,111
5.7430,107
5.7616,86
5.7802,112
5.7988,101
5.8173,102
5.8359,98
5.8545,104
5.8731,92
5.8916,125
5.9102,102
5.9288,106
5.9474,87
5.9659,99
5.9845,108
6.0031,94
6.0217,92
6.0402,95
6.0588,103
6.0774,96
6.0960,102
6.1145,107
6.1331,104
6.1517,86
6.1703,89
6.1888,92
6.2074,96
6.2260,91
6.2446,90
6.2631,77
6.2817,90
6.3003,88
6.3189,97
6.3374,86
6.3560,91
6.3746,96
6.3932,89
6.4117,100
6.4303,82
6.4489,105
6.4675,85
6.4860,86
6.5046,82
6.5232,86
6.5418,95
6.5604,90
6.5789,86
6.5975,65
6.6161,90
6.6347,90
6.6532,85
6.6718,89
6.6904,88
6.7090,92
6.7275,86
6.7461,70
6.7647,87
6.7833,95
6.8018,82
6.8204,100
6.8390,81
6.8576,86
6.8761,79
6.8947,72
6.9133,93
6.9319,72
6.9504,76
6.9690,85
6.9876,75
7.0062,76
7.0247,77
7.0433,80
7.0619,75
7.0805,87
7.0990,103
7.1176,73
7.1362,81
7.1548,72
7.1733,97
7.1919,83
7.2105,80
7.2291,69
7.2476,83
7.2662,81
7.2848,78
7.3034,83
7.3220,87
7.3405,76
7.3591,68
7.3777,65
7.3963,81
7.4148,75
7.4334,74
7.4520,78
7.4706,77
7.4891,86
7.5077,80
7.5263,83
7.5449,87
7.5634,88
7.5820,82
7.6006,78
7.6192,73
7.6377,82
7.6563,79
7.6749,86
7.6935,70
7.7120,80
7.7306,75
7.7492,99
7.7678,97
7.7863,77
7.8049,87
7.8235,79
7.8421,95
7.8606,98
7.8792,88
7.8978,88
7.9164,80
7.9349,89
7.9535,97
7.9721,81
7.9907,98
8.0092,97
8.0278,88
8.0464,90
8.0650,87
8.0835,72
8.1021,110
8.1207,91
8.1393,84
8.1579,87
8.1764,110
8.1950,102
8.2136,99
8.2322,70
8.2507,97
8.2693,94
8.2879,98
8.3065,97
8.3250,91
8.3436,96
8.3622,108
8.3808,85
8.3993,97
8.4179,98
8.4365,91
8.4551,113
8.4736,81
8.4922,99
8.5108,98
8.5294,102
8.5479,108
8.5665,99
8.5851,115
8.6037,99
8.6222,92
8.6408,106
8.6594,108
8.6780,79
8.6965,100
8.7151,103
8.7337,97
8.7523,107
8.7708,90
8.7894,98
8.8080,92
8.8266,111
8.8451,95
8.8637,95
8.8823,108
8.9009,99
8.9195,113
8.9380,105
8.9566,106
8.9752,99
8.9938,104
9.0123,101
9.0309,121
9.0495,111
9.0681,90
9.0866,113
9.1052,109
9.1238,100
9.1424,98
9.1609,116
9.1795,119
9.1981,102
9.2167,101
9.2352,107
9.2538,113
9.2724,119
9.2910,120
9.3095,108
9.3281,103
9.3467,117
9.3653,92
9.3838,125
9.4024,88
9.4210,99
9.4396,103
9.4581,96
9.4767,94
9.4953,114
9.5139,115
9.5324,110
9.5510,98
9.5696,116
9.5882,97
9.6067,106
9.6253,102
9.6439,119
9.6625,111
9.6811,90
9.6996,124
9.7182,116
9.7368,111
9.7554,125
9.7739,103
9.7925,116
9.8111,115
9.8297,128
9.8482,106
9.8668,113
9.8854,112
9.9040,110
9.9225,117
9.9411,131
9.9597,138
9.9783,108
9.9968,110
10.0154,104
10.0340,128
10.0526,142
10.0711,122
10.0897,104
10.1083,113
10.1269,120
10.1454,118
10.1640,111
10.1826,145
10.2012,129
10.2197,126
10.2383,114
10.2569,122
10.2755,111
10.2940,119
10.3126,125
10.3312,127
10.3498,113
10.3683,121
10.3869,128
10.4055,122
10.4241,106
10.4427,118
10.4612,114
10.4798,155
10.4984,133
10.5170,139
10.5355,136
10.5541,126
10.5727,133
10.5913,108
10.6098,114
10.6284,112
10.6470,97
10.6656,113
10.6841,113
10.7027,122
10.7213,115
10.7399,111
10.7584,100
10.7770,115
10.7956,107
10.8142,121
10.8327,115
10.8513,107
10.8699,101
10.8885,99
10.9070,111
10.9256,132
10.9442,125
10.9628,126
10.9813,110
10.9999,112
11.0185,120
11.0371,124
11.0556,110
11.0742,114
11.0928,116
11.1114,124
11.1299,124
11.1485,106
11.1671,127
11.1857,117
11.2043,121
11.2228,105
11.2414,103
11.2600,106
11.2786,123
11.2971,130
11.3157,114
11.3343,101
11.3529,144
11.3714,124
11.3900,103
11.4086,135
11.4272,119
11.4457,122
11.4643,113
11.4829,112
11.5015,105
11.5200,114
11.5386,112
11.5572,92
11.5758,114
11.5943,114
11.6129,116
11.6315,121
11.6501,93
11.6686,129
11.6872,125
11.7058,117
11.7244,101
11.7429,128
11.7615,109
11.7801,110
11.7987,117
11.8172,120
11.8358,104
11.8544,106
11.8730,92
11.8915,124
11.9101,111
11.9287,121
11.9473,112
11.9659,126
11.9844,115
12.0030,100
12.0216,97
12.0402,119
12.0587,118
12.0773,105
12.0959,120
12.1145,92
12.1330,102
12.1516,131
12.1702,112
12.1888,97
12.2073,134
12.2259,106
12.2445,119
12.2631,129
12.2816,114
12.3002,109
12.3188,121
12.3374,104
12.3559,97
12.3745,111
12.3931,113
12.4117,95
12.4302,107
12.4488,100
12.4674,123
12.4860,110
12.5045,121
12.5231,107
12.5417,107
12.5603,108
12.5788,103
12.5974,107
12.6160,120
12.6346,93
12.6531,84
12.6717,100
12.6903,112
12.7089,104
12.7274,117
12.7460,89
12.7646,106
12.7832,106
12.8018,101
12.8203,105
12.8389,102
12.8575,93
12.8761,95
12.8946,104
12.9132,106
12.9318,94
12.9504,114
12.9689,112
12.9875,108
13.0061,97
13.0247,122
13.0432,99
13.0618,99
13.0804,83
13.0990,102
13.1175,100
13.1361,102
13.1547,86
13.1733,103
13.1918,100
13.2104,90
13.2290,103
13.2476,84
13.2661,87
13.2847,83
13.3033,75
13.3219,86
13.3404,106
13.3590,97
13.3776,95
13.3962,87
13.4147,103
13.4333,95
13.4519,100
13.4705,101
13.4890,81
13.5076,73
13.5262,101
13.5448,94
13.5634,86
13.5819,84
13.6005,77
13.6191,96
13.6377,120
13.6562,107
13.6748,106
13.6934,92
13.7120,84
13.7305,107
13.7491,79
13.7677,99
13.7863,102
13.8048,92
13.8234,76
13.8420,84
13.8606,107
13.8791,90
13.8977,89
13.9163,84
13.9349,94
13.9534,86
13.9720,79
13.9906,116
14.0092,93
14.0277,81
14.0463,89
14.0649,87
14.0835,79
14.1020,95
14.1206,80
14.1392,83
14.1578,85
14.1763,85
14.1949,84
14.2135,88
14.2321,91
14.2506,80
14.2692,78
14.2878,84
14.3064,89
14.3250,110
14.3435,94
14.3621,82
14.3807,96
14.3993,89
14.4178,91
14.4364,91
14.4550,92
14.4736,80
14.4921,78
14.5107,85
14.5293,93
14.5479,92
14.5664,86
14.5850,89
14.6036,83
14.6222,93
14.6407,82
14.6593,67
14.6779,80
14.6965,97
14.7150,98
14.7336,74
14.7522,76
14.7708,83
14.7893,92
14.8079,88
14.8265,94
14.8451,82
14.8636,95
14.8822,89
14.9008,79
14.9194,89
14.9379,92
14.9565,90
14.9751,66
14.9937,76
15.0122,67
15.0308,72
15.0494,79
15.0680,95
15.0866,87
15.1051,85
15.1237,89
15.1423,91
15.1609,74
15.1794,89
15.1980,81
15.2166,75
15.2352,86
15.2537,81
15.2723,73
15.2909,97
15.3095,63
15.3280,87
15.3466,62
15.3652,70
15.3838,94
15.4023,98
15.4209,72
15.4395,87
15.4581,82
15.4766,95
15.4952,89
15.5138,82
15.5324,83
15.5509,90
15.5695,82
15.5881,87
15.6067,89
15.6252,74
15.6438,103
15.6624,72
15.6810,75
15.6995,78
15.7181,80
15.7367,91
15.7553,82
15.7738,72
15.7924,78
15.8110,77
15.8296,91
15.8482,83
15.8667,71
15.8853,98
15.9039,79
15.9225,86
15.9410,84
15.9596,81
15.9782,87
15.9968,86
16.0153,92
16.0339,83
16.0525,84
16.0711,109
16.0896,79
16.1082,107
16.1268,65
16.1454,89
16.1639,76
16.1825,71
16.2011,94
16.2197,70
16.2382,82
16.2568,84
16.2754,76
16.2940,96
16.3125,92
16.3311,76
16.3497,84
16.3683,77
16.3868,83
16.4054,90
16.4240,79
16.4426,83
16.4611,75
16.4797,95
16.4983,71
16.5169,88
16.5354,73
16.5540,75
16.5726,87
16.5912,69
16.6097,70
16.6283,78
16.6469,96
16.6655,74
16.6841,68
16.7026,86
16.7212,82
16.7398,66
16.7584,87
16.7769,82
16.7955,83
16.8141,73
16.8327,75
16.8512,73
16.8698,87
16.8884,93
16.9070,81
16.9255,79
16.9441,72
16.9627,88
16.9813,69
16.9998,92
17.0184,79
17.0370,88
17.0556,84
17.0741,77
17.0927,83
17.1113,81
17.1299,71
17.1484,89
17.1670,82
17.1856,95
17.2042,85
17.2227,88
17.2413,80
17.2599,72
17.2785,95
17.2970,90
17.3156,82
17.3342,82
17.3528,73
17.3713,90
17.3899,87
17.4085,80
17.4271,84
17.4457,72
17.4642,65
17.4828,88
17.5014,79
17.5200,100
17.5385,78
17.5571,82
17.5757,74
17.5943,81
17.6128,79
17.6314,92
17.6500,84
17.6686,76
17.6871,84
17.7057,77
17.7243,88
17.7429,87
17.7614,88
17.7800,79
17.7986,71
17.8172,76
17.8357,81
17.8543,85
17.8729,75
17.8915,84
17.9100,78
17.9286,84
17.9472,89
17.9658,75
17.9843,83
18.0029,77
18.0215,71
18.0401,69
18.0586,87
18.0772,93
18.0958,88
18.1144,77
18.1329,82
18.1515,76
18.1701,83
18.1887,89
18.2073,79
18.2258,79
18.2444,73
18.2630,86
18.2816,72
18.3001,87
18.3187,94
18.3373,90
18.3559,88
18.3744,68
18.3930,73
18.4116,78
18.4302,95
18.4487,89
18.4673,78
18.4859,73
18.5045,78
18.5230,106
18.5416,77
18.5602,86
18.5788,74
18.5973,67
18.6159,84
18.6345,90
18.6531,78
18.6716,70
18.6902,66
18.7088,80
18.7274,86
18.7459,85
18.7645,67
18.7831,89
18.8017,82
18.8202,96
18.8388,85
18.8574,76
18.8760,77
18.8945,80
18.9131,70
18.9317,87
18.9503,100
18.9689,75
18.9874,78
19.0060,88
19.0246,86
19.0432,80
19.0617,104
19.0803,91
19.0989,91
19.1175,88
19.1360,80
19.1546,83
19.1732,94
19.1918,76
19.2103,79
19.2289,87
19.2475,90
19.2661,89
19.2846,83
19.3032,83
19.3218,93
19.3404,85
19.3589,81
19.3775,81
19.3961,86
19.4147,98
19.4332,93
19.4518,88
19.4704,80
19.4890,86
19.5075,74
19.5261,79
19.5447,85
19.5633,84
19.5818,78
19.6004,67
19.6190,73
19.6376,87
19.6561,95
19.6747,81
19.6933,77
19.7119,80
19.7305,81
19.7490,91
19.7676,103
19.7862,92
19.8048,92
19.8233,92
19.8419,80
19.8605,77
19.8791,82
19.8976,82
19.9162,96
19.9348,97
19.9534,86
19.9719,118
19.9905,113
20.0091,95
20.0277,98
20.0462,80
20.0648,83
20.0834,76
20.1020,104
20.1205,91
20.1391,81
20.1577,80
20.1763,92
20.1948,88
20.2134,101
20.2320,81
20.2506,92
20.2691,84
20.2877,98
20.3063,100
20.3249,103
20.3434,89
20.3620,83
20.3806,92
20.3992,83
20.4177,77
20.4363,83
20.4549,101
20.4735,83
20.4921,94
20.5106,67
20.5292,86
20.5478,99
20.5664,103
20.5849,85
20.6035,105
20.6221,88
20.6407,92
20.6592,99
20.6778,105
20.6964,97
20.7150,92
20.7335,83
20.7521,73
20.7707,93
20.7893,89
20.8078,84
20.8264,109
20.8450,110
20.8636,65
20.8821,80
20.9007,80
20.9193,101
20.9379,84
20.9564,92
20.9750,92
20.9936,89
21.0122,105
21.0307,92
21.0493,111
21.0679,88
21.0865,94
21.1050,120
21.1236,96
21.1422,113
21.1608,121
21.1793,124
21.1979,139
21.2165,188
21.2351,155
21.2537,157
21.2722,151
21.2908,153
21.3094,126
21.3280,182
21.3465,221
21.3651,268
21.3837,190
21.4023,209
21.4208,192
21.4394,131
21.4580,121
21.4766,105
21.4951,106
21.5137,111
21.5323,97
21.5509,104
21.5694,82
21.5880,103
21.6066,103
21.6252,99
21.6437,96
21.6623,113
21.6809,93
21.6995,99
21.7180,108
21.7366,94
21.7552,103
21.7738,87
21.7923,104
21.8109,99
21.8295,98
21.8481,97
21.8666,107
21.8852,105
21.9038,83
21.9224,96
21.9409,82
21.9595,88
21.9781,95
21.9967,104
22.0152,91
22.0338,113
22.0524,98
22.0710,107
22.0896,92
22.1081,101
22.1267,84
22.1453,101
22.1639,98
22.1824,100
22.2010,104
22.2196,100
22.2382,96
22.2567,108
22.2753,78
22.2939,96
22.3125,93
22.3310,108
22.3496,95
22.3682,87
22.3868,95
22.4053,112
22.4239,122
22.4425,91
22.4611,79
22.4796,98
22.4982,98
22.5168,98
22.5354,102
22.5539,94
22.5725,103
22.5911,97
22.6097,117
22.6282,106
22.6468,100
22.6654,97
22.6840,92
22.7025,114
22.7211,82
22.7397,95
22.7583,93
22.7768,106
22.7954,105
22.8140,92
22.8326,106
22.8512,97
22.8697,113
22.8883,92
22.9069,108
22.9255,84
22.9440,86
22.9626,104
22.9812,80
22.9998,102
23.0183,117
23.0369,87
23.0555,94
23.0741,96
23.0926,104
23.1112,100
23.1298,116
23.1484,120
23.1669,95
23.1855,108
23.2041,103
23.2227,92
23.2412,92
23.2598,126
23.2784,86
23.2970,94
23.3155,100
23.3341,106
23.3527,94
23.3713,119
23.3898,96
23.4084,84
23.4270,98
23.4456,105
23.4641,94
23.4827,89
23.5013,93
23.5199,111
23.5384,111
23.5570,90
23.5756,91
23.5942,99
23.6128,88
23.6313,104
23.6499,98
23.6685,114
23.6871,89
23.7056,97
23.7242,85
23.7428,90
23.7614,103
23.7799,100
23.7985,107
23.8171,98
23.8357,109
23.8542,100
23.8728,103
23.8914,100
23.9100,94
23.9285,95
23.9471,82
23.9657,85
23.9843,92
24.0028,103
24.0214,102
24.0400,102
24.0586,82
24.0771,82
24.0957,99
24.1143,92
24.1329,105
24.1514,102
24.1700,95
24.1886,132
24.2072,100
24.2257,102
24.2443,113
24.2629,107
24.2815,115
24.3000,126
24.3186,111
24.3372,102
24.3558,111
24.3744,90
24.3929,107
24.4115,125
24.4301,106
24.4487,101
24.4672,82
24.4858,89
24.5044,113
24.5230,101
24.5415,110
24.5601,102
24.5787,113
24.5973,93
24.6158,98
24.6344,97
24.6530,94
24.6716,85
24.6901,108
24.7087,131
24.7273,92
24.7459,105
24.7644,96
24.7830,88
24.8016,99
24.8202,92
24.8387,93
24.8573,97
24.8759,86
24.8945,104
24.9130,89
24.9316,115
24.9502,99
24.9688,94
24.9873,100
25.0059,110
25.0245,91
25.0431,105
25.0616,82
25.0802,97
25.0988,115
25.1174,107
25.1360,98
25.1545,83
25.1731,96
25.1917,96
25.2103,92
25.2288,96
25.2474,107
25.2660,92
25.2846,72
25.3031,106
25.3217,106
25.3403,106
25.3589,83
25.3774,89
25.3960,87
25.4146,94
25.4332,96
25.4517,85
25.4703,103
25.4889,84
25.5075,99
25.5260,94
25.5446,90
25.5632,109
25.5818,85
25.6003,79
25.6189,84
25.6375,109
25.6561,106
25.6746,99
25.6932,100
25.7118,110
25.7304,101
25.7489,86
25.7675,98
25.7861,95
25.8047,101
25.8232,107
25.8418,101
25.8604,79
25.8790,93
25.8976,99
25.9161,102
25.9347,84
25.9533,103
25.9719,81
25.9904,97
26.0090,89
26.0276,87
26.0462,84
26.0647,90
26.0833,88
26.1019,99
26.1205,84
26.1390,92
26.1576,86
26.1762,109
26.1948,89
26.2133,108
26.2319,96
26.2505,87
26.2691,101
26.2876,104
26.3062,107
26.3248,99
26.3434,78
26.3619,96
26.3805,83
26.3991,88
26.4177,91
26.4362,88
26.4548,96
26.4734,98
26.4920,95
26.5105,85
26.5291,96
26.5477,97
26.5663,86
26.5848,85
26.6034,90
26.6220,93
26.6406,96
26.6591,86
26.6777,82
26.6963,93
26.7149,106
26.7335,89
26.7520,80
26.7706,78
26.7892,83
26.8078,90
26.8263,90
26.8449,111
26.8635,95
26.8821,88
26.9006,97
26.9192,98
26.9378,96
26.9564,91
26.9749,84
26.9935,91
27.0121,91
27.0307,88
27.0492,88
27.0678,101
27.0864,99
27.1050,87
27.1235,104
27.1421,117
27.1607,104
27.1793,94
27.1978,133
27.2164,117
27.2350,103
27.2536,127
27.2721,109
27.2907,108
27.3093,103
27.3279,98
27.3464,81
27.3650,95
27.3836,96
27.4022,89
27.4207,78
27.4393,88
27.4579,89
27.4765,83
27.4951,93
27.5136,93
27.5322,82
27.5508,89
27.5694,68
27.5879,90
27.6065,90
27.6251,87
27.6437,77
27.6622,72
27.6808,99
27.6994,82
27.7180,110
27.7365,95
27.7551,101
27.7737,101
27.7923,69
27.8108,71
27.8294,77
27.8480,75
27.8666,80
27.8851,77
27.9037,92
27.9223,88
27.9409,85
27.9594,109
27.9780,82
27.9966,93
28.0152,85
28.0337,84
28.0523,66
28.0709,74
28.0895,76
28.1080,83
28.1266,106
28.1452,95
28.1638,82
28.1823,88
28.2009,74
28.2195,79
28.2381,97
28.2567,75
28.2752,91
28.2938,86
28.3124,83
28.3310,71
28.3495,78
28.3681,82
28.3867,71
28.4053,85
28.4238,85
28.4424,78
28.4610,77
28.4796,87
28.4981,68
28.5167,93
28.5353,87
28.5539,76
28.5724,92
28.5910,79
28.6096,95
28.6282,83
28.6467,67
28.6653,99
28.6839,83
28.7025,74
28.7210,74
28.7396,70
28.7582,71
28.7768,87
28.7953,82
28.8139,82
28.8325,72
28.8511,77
28.8696,79
28.8882,89
28.9068,77
28.9254,85
28.9439,75
28.9625,93
28.9811,84
28.9997,92
29.0183,78
29.0368,73
29.0554,76
29.0740,75
29.0926,72
29.1111,64
29.1297,78
29.1483,66
29.1669,82
29.1854,89
29.2040,61
29.2226,81
29.2412,74
29.2597,66
29.2783,85
29.2969,83
29.3155,65
29.3340,81
29.3526,81
29.3712,83
29.3898,90
29.4083,89
29.4269,101
29.4455,89
29.4641,70
29.4826,96
29.5012,82
29.5198,89
29.5384,94
29.5569,65
29.5755,67
29.5941,88
29.6127,78
29.6312,83
29.6498,61
29.6684,72
29.6870,79
29.7055,69
29.7241,79
29.7427,91
29.7613,101
29.7799,69
29.7984,91
29.8170,81
29.8356,88
29.8542,86
29.8727,79
29.8913,93
29.9099,86
29.9285,66
29.9470,83
29.9656,86
29.9842,76
30.0028,87
30.0213,74
30.0399,79
30.0585,75
30.0771,90
30.0956,73
30.1142,80
30.1328,79
30.1514,81
30.1699,70
30.1885,105
30.2071,76
30.2257,84
30.2442,79
30.2628,91
30.2814,73
30.3000,94
30.3185,80
30.3371,101
30.3557,114
30.3743,118
30.3928,172
30.4114,142
30.4300,114
30.4486,133
30.4671,118
30.4857,110
30.5043,87
30.5229,94
30.5415,96
30.5600,82
30.5786,74
30.5972,92
30.6158,88
30.6343,83
30.6529,74
30.6715,62
30.6901,61
30.7086,91
30.7272,71
30.7458,79
30.7644,68
30.7829,80
30.8015,79
30.8201,81
30.8387,61
30.8572,65
30.8758,74
30.8944,67
30.9130,68
30.9315,74
30.9501,70
30.9687,80
30.9873,83
31.0058,54
31.0244,82
31.0430,74
31.0616,62
31.0801,73
31.0987,84
31.1173,72
31.1359,79
31.1544,71
31.1730,70
31.1916,69
31.2102,63
31.2287,77
31.2473,68
31.2659,72
31.2845,60
31.3030,62
31.3216,64
31.3402,63
31.3588,78
31.3774,61
31.3959,60
31.4145,70
31.4331,75
31.4517,61
31.4702,65
31.4888,63
31.5074,75
31.5260,69
31.5445,67
31.5631,71
31.5817,57
31.6003,70
31.6188,77
31.6374,81
31.6560,64
31.6746,55
31.6931,86
31.7117,58
31.7303,64
31.7489,67
31.7674,72
31.7860,57
31.8046,67
31.8232,77
31.8417,75
31.8603,72
31.8789,68
31.8975,64
31.9160,59
31.9346,60
31.9532,79
31.9718,71
31.9903,73
32.0089,65
32.0275,68
32.0461,64
32.0646,73
32.0832,61
32.1018,59
32.1204,62
32.1390,76
32.1575,68
32.1761,75
32.1947,70
32.2133,77
32.2318,69
32.2504,77
32.2690,62
32.2876,67
32.3061,63
32.3247,57
32.3433,67
32.3619,68
32.3804,64
32.3990,62
32.4176,59
32.4362,70
32.4547,63
32.4733,72
32.4919,78
32.5105,70
32.5290,72
32.5476,78
32.5662,77
32.5848,73
32.6033,68
32.6219,73
32.6405,73
32.6591,64
32.6776,70
32.6962,73
32.7148,60
32.7334,66
32.7519,62
32.7705,54
32.7891,75
32.8077,72
32.8262,62
32.8448,66
32.8634,56
32.8820,61
32.9006,53
32.9191,62
32.9377,56
32.9563,69
32.9749,69
32.9934,67
33.0120,63
33.0306,58
33.0492,48
33.0677,67
33.0863,48
33.1049,57
33.1235,71
33.1420,61
33.1606,55
33.1792,64
33.1978,57
33.2163,59
33.2349,62
33.2535,51
33.2721,60
33.2906,59
33.3092,59
33.3278,64
33.3464,50
33.3649,57
33.3835,72
33.4021,42
33.4207,53
33.4392,59
33.4578,63
33.4764,64
33.4950,53
33.5135,63
33.5321,58
33.5507,65
33.5693,73
33.5878,54
33.6064,51
33.6250,65
33.6436,52
33.6622,58
33.6807,50
33.6993,62
33.7179,65
33.7365,58
33.7550,69
33.7736,44
33.7922,54
33.8108,50
33.8293,53
33.8479,64
33.8665,59
33.8851,62
33.9036,46
33.9222,57
33.9408,50
33.9594,73
33.9779,48
33.9965,45
34.0151,54
34.0337,41
34.0522,40
34.0708,66
34.0894,53
34.1080,62
34.1265,59
34.1451,47
34.1637,57
34.1823,53
34.2008,59
34.2194,61
34.2380,50
34.2566,58
34.2751,55
34.2937,49
34.3123,59
34.3309,55
34.3494,41
34.3680,61
34.3866,54
34.4052,55
34.4238,60
34.4423,51
34.4609,65
34.4795,51
34.4981,58
34.5166,52
34.5352,43
34.5538,48
34.5724,52
34.5909,63
34.6095,61
34.6281,75
34.6467,75
34.6652,61
34.6838,66
34.7024,69
34.7210,78
34.7395,64
34.7581,88
34.7767,68
34.7953,83
34.8138,69
34.8324,73
34.8510,81
34.8696,76
34.8881,58
34.9067,55
34.9253,57
34.9439,68
34.9624,52
34.9810,64
34.9996,43
35.0182,46
35.0367,59
35.0553,52
35.0739,53
35.0925,63
35.1110,45
35.1296,43
35.1482,44
35.1668,46
35.1854,55
35.2039,44
35.2225,64
35.2411,64
35.2597,61
35.2782,52
35.2968,45
35.3154,51
35.3340,55
35.3525,55
35.3711,52
35.3897,57
35.4083,76
35.4268,45
35.4454,50
35.4640,53
35.4826,54
35.5011,48
35.5197,49
35.5383,49
35.5569,59
35.5754,45
35.5940,47
35.6126,37
35.6312,52
35.6497,50
35.6683,51
35.6869,54
35.7055,56
35.7240,49
35.7426,60
35.7612,48
35.7798,55
35.7983,58
35.8169,43
35.8355,58
35.8541,64
35.8726,43
35.8912,61
35.9098,49
35.9284,41
35.9469,46
35.9655,51
35.9841,49
36.0027,47
36.0213,48
36.0398,41
36.0584,55
36.0770,57
36.0956,42
36.1141,58
36.1327,56
36.1513,53
36.1699,50
36.1884,35
36.2070,45
36.2256,46
36.2442,58
36.2627,50
36.2813,67
36.2999,47
36.3185,53
36.3370,51
36.3556,45
36.3742,47
36.3928,43
36.4113,52
36.4299,57
36.4485,62
36.4671,38
36.4856,48
36.5042,41
36.5228,37
36.5414,47
36.5599,40
36.5785,52
36.5971,46
36.6157,41
36.6342,57
36.6528,40
36.6714,49
36.6900,45
36.7085,43
36.7271,45
36.7457,48
36.7643,48
36.7829,62
36.8014,44
36.8200,50
36.8386,49
36.8572,44
36.8757,46
36.8943,45
36.9129,41
36.9315,46
36.9500,39
36.9686,53
36.9872,52
37.0058,60
37.0243,57
37.0429,54
37.0615,57
37.0801,47
37.0986,55
37.1172,44
37.1358,47
37.1544,31
37.1729,47
37.1915,52
37.2101,31
37.2287,41
37.2472,47
37.2658,42
37.2844,44
37.3030,39
37.3215,50
37.3401,45
37.3587,45
37.3773,55
37.3958,52
37.4144,60
37.4330,79
37.4516,68
37.4701,72
37.4887,66
37.5073,60
37.5259,61
37.5445,51
37.5630,59
37.5816,51
37.6002,43
37.6188,45
37.6373,49
37.6559,37
37.6745,52
37.6931,39
37.7116,39
37.7302,39
37.7488,46
37.7674,52
37.7859,52
37.8045,39
37.8231,40
37.8417,44
37.8602,33
37.8788,45
37.8974,34
37.9160,43
37.9345,48
37.9531,48
37.9717,50
37.9903,39
38.0088,45
38.0274,59
38.0460,49
38.0646,38
38.0831,38
38.1017,43
38.1203,45
38.1389,47
38.1574,36
38.1760,44
38.1946,35
38.2132,36
38.2317,43
38.2503,46
38.2689,35
38.2875,43
38.3061,48
38.3246,49
38.3432,42
38.3618,36
38.3804,38
38.3989,43
38.4175,45
38.4361,47
38.4547,43
38.4732,47
38.4918,42
38.5104,35
38.5290,46
38.5475,41
38.5661,33
38.5847,29
38.6033,30
38.6218,37
38.6404,42
38.6590,46
38.6776,48
38.6961,37
38.7147,35
38.7333,45
38.7519,29
38.7704,47
38.7890,47
38.8076,35
38.8262,44
38.8447,38
38.8633,39
38.8819,33
38.9005,48
38.9190,32
38.9376,43
38.9562,37
38.9748,38
38.9933,48
39.0119,46
39.0305,36
39.0491,40
39.0677,42
39.0862,47
39.1048,46
39.1234,27
39.1420,36
39.1605,26
39.1791,46
39.1977,48
39.2163,42
39.2348,42
39.2534,50
39.2720,32
39.2906,45
39.3091,59
39.3277,43
39.3463,37
39.3649,38
39.3834,31
39.4020,47
39.4206,50
39.4392,33
39.4577,38
39.4763,39
39.4949,48
39.5135,32
39.5320,37
39.5506,36
39.5692,37
39.5878,38
39.6063,49
39.6249,30
39.6435,33
39.6621,38
39.6806,41
39.6992,33
39.7178,39
39.7364,36
39.7549,38
39.7735,30
39.7921,42
39.8107,38
39.8293,48
39.8478,50
39.8664,36
39.8850,31
39.9036,43
39.9221,49
39.9407,34
39.9593,38
39.9779,39
39.9964,35
40.0150,43
40.0336,31
40.0522,43
40.0707,35
40.0893,40
40.1079,44
40.1265,32
40.1450,40
40.1636,41
40.1822,38
40.2008,44
40.2193,37
40.2379,31
40.2565,31
40.2751,32
40.2936,34
40.3122,40
40.3308,29
40.3494,42
40.3679,33
40.3865,34
40.4051,33
40.4237,34
40.4422,37
40.4608,39
40.4794,44
40.4980,35
40.5165,47
40.5351,50
40.5537,36
40.5723,31
40.5908,40
40.6094,44
40.6280,58
40.6466,35
40.6652,37
40.6837,41
40.7023,39
40.7209,37
40.7395,41
40.7580,45
40.7766,48
40.7952,52
40.8138,35
40.8323,31
40.8509,36
40.8695,47
40.8881,39
40.9066,34
40.9252,42
40.9438,47
40.9624,40
40.9809,44
40.9995,38
41.0181,34
41.0367,44
41.0552,37
41.0738,46
41.0924,42
41.1110,32
41.1295,41
41.1481,35
41.1667,53
41.1853,34
41.2038,26
41.2224,44
41.2410,45
41.2596,39
41.2781,29
41.2967,50
41.3153,37
41.3339,38
41.3524,40
41.3710,38
41.3896,40
41.4082,50
41.4268,37
41.4453,43
41.4639,31
41.4825,35
41.5011,41
41.5196,39
41.5382,39
41.5568,35
41.5754,42
41.5939,32
41.6125,42
41.6311,36
41.6497,37
41.6682,33
41.6868,39
41.7054,36
41.7240,30
41.7425,32
41.7611,43
41.7797,27
41.7983,31
41.8168,27
41.8354,43
41.8540,26
41.8726,33
41.8911,25
41.9097,44
41.9283,37
41.9469,42
41.9654,35
41.9840,42
42.0026,37
42.0212,34
42.0397,34
42.0583,36
42.0769,34
42.0955,34
42.1140,39
42.1326,26
42.1512,37
42.1698,33
42.1884,37
42.2069,35
42.2255,33
42.2441,47
42.2627,46
42.2812,40
42.2998,37
42.3184,45
42.3370,40
42.3555,40
42.3741,47
42.3927,23
42.4113,36
42.4298,35
42.4484,42
42.4670,48
42.4856,32
42.5041,29
42.5227,35
42.5413,43
42.5599,40
42.5784,35
42.5970,37
42.6156,42
42.6342,50
42.6527,28
42.6713,38
42.6899,37
42.7085,48
42.7270,50
42.7456,40
42.7642,48
42.7828,40
42.8013,37
42.8199,32
42.8385,35
42.8571,44
42.8756,36
42.8942,46
42.9128,46
42.9314,32
42.9500,35
42.9685,45
42.9871,42
43.0057,60
43.0243,47
43.0428,42
43.0614,38
43.0800,37
43.0986,31
43.1171,34
43.1357,34
43.1543,42
43.1729,35
43.1914,40
43.2100,34
43.2286,34
43.2472,36
43.2657,31
43.2843,45
43.3029,51
43.3215,45
43.3400,65
43.3586,45
43.3772,39
43.3958,38
43.4143,33
43.4329,46
43.4515,40
43.4701,41
43.4886,56
43.5072,75
43.5258,65
43.5444,47
43.5629,43
43.5815,44
43.6001,44
43.6187,45
43.6372,60
43.6558,34
43.6744,45
43.6930,39
43.7116,32
43.7301,42
43.7487,29
43.7673,26
43.7859,37
43.8044,36
43.8230,33
43.8416,37
43.8602,40
43.8787,40
43.8973,36
43.9159,42
43.9345,46
43.9530,40
43.9716,30
43.9902,33
44.0088,32
44.0273,39
44.0459,26
44.0645,28
44.0831,43
44.1016,30
44.1202,29
44.1388,46
44.1574,30
44.1759,30
44.1945,41
44.2131,32
44.2317,37
44.2502,41
44.2688,41
44.2874,26
44.3060,36
44.3245,40
44.3431,33
44.3617,38
44.3803,35
44.3988,41
44.4174,29
44.4360,36
44.4546,30
44.4732,34
44.4917,43
44.5103,45
44.5289,39
44.5475,37
44.5660,32
44.5846,38
44.6032,40
44.6218,35
44.6403,49
44.6589,37
44.6775,29
44.6961,33
44.7146,42
44.7332,41
44.7518,37
44.7704,29
44.7889,52
44.8075,24
44.8261,39
44.8447,32
44.8632,30
44.8818,42
44.9004,39
44.9190,35
44.9375,25
44.9561,39
44.9747,37
44.9933,37
45.0118,37
45.0304,35
45.0490,37
45.0676,42
45.0861,42
45.1047,28
45.1233,37
45.1419,32
45.1604,34
45.1790,43
45.1976,32
45.2162,35
45.2347,41
45.2533,38
45.2719,31
45.2905,36
45.3091,22
45.3276,22
45.3462,28
45.3648,28
45.3834,29
45.4019,33
45.4205,42
45.4391,32
45.4577,29
45.4762,30
45.4948,31
45.5134,32
45.5320,30
45.5505,33
45.5691,35
45.5877,28
45.6063,39
45.6248,33
45.6434,33
45.6620,41
45.6806,30
45.6991,38
45.7177,18
45.7363,32
45.7549,25
45.7734,30
45.7920,48
45.8106,24
45.8292,26
45.8477,29
45.8663,35
45.8849,45
45.9035,34
45.9220,24
45.9406,30
45.9592,32
45.9778,39
45.9963,25
46.0149,38
46.0335,40
46.0521,40
46.0707,35
46.0892,19
46.1078,33
46.1264,33
46.1450,24
46.1635,35
46.1821,23
46.2007,38
46.2193,28
46.2378,36
46.2564,43
46.2750,35
46.2936,28
46.3121,25
46.3307,37
46.3493,35
46.3679,34
46.3864,32
46.4050,44
46.4236,42
46.4422,32
46.4607,34
46.4793,25
46.4979,28
46.5165,32
46.5350,31
46.5536,28
46.5722,33
46.5908,32
46.6093,31
46.6279,27
46.6465,32
46.6651,39
46.6836,30
46.7022,38
46.7208,26
46.7394,33
46.7579,29
46.7765,27
46.7951,42
46.8137,32
46.8323,31
46.8508,36
46.8694,23
46.8880,30
46.9066,27
46.9251,31
46.9437,29
46.9623,27
46.9809,35
46.9994,32
47.0180,31
47.0366,26
47.0552,28
47.0737,30
47.0923,24
47.1109,33
47.1295,33
47.1480,27
47.1666,27
47.1852,39
47.2038,31
47.2223,33
47.2409,23
47.2595,32
47.2781,33
47.2966,33
47.3152,24
47.3338,37
47.3524,31
47.3709,38
47.3895,34
47.4081,41
47.4267,22
47.4452,28
47.4638,32
47.4824,33
47.5010,37
47.5195,28
47.5381,24
47.5567,22
47.5753,34
47.5939,39
47.6124,33
47.6310,30
47.6496,22
47.6682,30
47.6867,34
47.7053,35
47.7239,25
47.7425,30
47.7610,23
47.7796,27
47.7982,32
47.8168,32
47.8353,24
47.8539,39
47.8725,25
47.8911,30
47.9096,37
47.9282,29
47.9468,24
47.9654,28
47.9839,32
48.0025,28
48.0211,24
48.0397,30
48.0582,32
48.0768,27
48.0954,25
48.1140,31
48.1325,34
48.1511,30
48.1697,31
48.1883,32
48.2068,26
48.2254,32
48.2440,36
48.2626,29
48.2811,30
48.2997,35
48.3183,30
48.3369,29
48.3555,28
48.3740,32
48.3926,31
48.4112,29
48.4298,29
48.4483,31
48.4669,37
48.4855,38
48.5041,33
48.5226,30
48.5412,27
48.5598,16
48.5784,36
48.5969,34
48.6155,34
48.6341,29
48.6527,22
48.6712,35
48.6898,38
48.7084,31
48.7270,31
48.7455,37
48.7641,37
48.7827,34
48.8013,28
48.8198,27
48.8384,29
48.8570,26
48.8756,39
48.8941,46
48.9127,42
48.9313,39
48.9499,64
48.9684,71
48.9870,42
49.0056,39
49.0242,31
49.0427,46
49.0613,35
49.0799,47
49.0985,37
49.1171,45
49.1356,44
49.1542,32
49.1728,42
49.1914,31
49.2099,35
49.2285,29
49.2471,32
49.2657,28
49.2842,33
49.3028,38
49.3214,29
49.3400,41
49.3585,32
49.3771,32
49.3957,34
49.4143,30
49.4328,30
49.4514,30
49.4700,30
49.4886,28
49.5071,35
49.5257,37
49.5443,38
49.5629,21
49.5814,33
49.6000,31
49.6186,35
49.6372,27
49.6557,41
49.6743,41
49.6929,37
49.7115,34
49.7300,31
49.7486,29
49.7672,31
49.7858,32
49.8043,42
49.8229,26
49.8415,32
49.8601,28
49.8786,24
49.8972,26
49.9158,25
49.9344,40
49.9530,30
49.9715,33
49.9901,33
50.0087,32
50.0273,37
50.0458,31
50.0644,35
50.0830,25
50.1016,32
50.1201,27
50.1387,34
50.1573,30
50.1759,34
50.1944,32
50.2130,31
50.2316,26
50.2502,33
50.2687,38
50.2873,43
50.3059,37
50.3245,38
50.3430,36
50.3616,27
50.3802,27
50.3988,29
50.4173,32
50.4359,32
50.4545,28
50.4731,15
50.4916,26
50.5102,32
50.5288,26
50.5474,40
50.5659,33
50.5845,32
50.6031,23
50.6217,31
50.6402,20
50.6588,30
50.6774,33
50.6960,27
50.7146,35
50.7331,29
50.7517,30
50.7703,29
50.7889,18
50.8074,24
50.8260,32
50.8446,25
50.8632,32
50.8817,30
50.9003,28
50.9189,34
50.9375,28
50.9560,32
50.9746,33
50.9932,38
51.0118,31
51.0303,28
51.0489,26
51.0675,37
51.0861,36
51.1046,31
51.1232,23
51.1418,37
51.1604,33
51.1789,33
51.1975,30
51.2161,20
51.2347,36
51.2532,29
51.2718,21
51.2904,31
51.3090,27
51.3275,26
51.3461,34
51.3647,27
51.3833,35
51.4018,35
51.4204,34
51.4390,31
51.4576,40
51.4762,31
51.4947,28
51.5133,48
51.5319,34
51.5505,41
51.5690,31
51.5876,26
51.6062,35
51.6248,35
51.6433,28
51.6619,31
51.6805,28
51.6991,30
51.7176,29
51.7362,31
51.7548,20
51.7734,33
51.7919,27
51.8105,32
51.8291,40
51.8477,41
51.8662,30
51.8848,25
51.9034,25
51.9220,28
51.9405,25
51.9591,34
51.9777,37
51.9963,32
52.0148,38
52.0334,26
52.0520,33
52.0706,29
52.0891,31
52.1077,29
52.1263,34
52.1449,31
52.1634,39
52.1820,35
52.2006,23
52.2192,22
52.2378,30
52.2563,20
52.2749,27
52.2935,26
52.3121,29
52.3306,25
52.3492,26
52.3678,28
52.3864,22
52.4049,24
52.4235,22
52.4421,28
52.4607,34
52.4792,21
52.4978,28
52.5164,26
52.5350,28
52.5535,43
52.5721,38
52.5907,28
52.6093,30
52.6278,24
52.6464,30
52.6650,27
52.6836,29
52.7021,37
52.7207,24
52.7393,24
52.7579,24
52.7764,26
52.7950,28
52.8136,35
52.8322,32
52.8507,32
52.8693,25
52.8879,28
52.9065,31
52.9250,22
52.9436,29
52.9622,27
52.9808,31
52.9994,38
53.0179,31
53.0365,33
53.0551,26
53.0737,23
53.0922,30
53.1108,42
53.1294,32
53.1480,27
53.1665,29
53.1851,18
53.2037,27
53.2223,21
53.2408,27
53.2594,23
53.2780,38
53.2966,26
53.3151,28
53.3337,23
53.3523,35
53.3709,26
53.3894,32
53.4080,19
53.4266,28
53.4452,21
53.4637,30
53.4823,28
53.5009,28
53.5195,23
53.5380,33
53.5566,26
53.5752,36
53.5938,23
53.6123,42
53.6309,37
53.6495,34
53.6681,34
53.6866,23
53.7052,26
53.7238,17
53.7424,31
53.7610,25
53.7795,30
53.7981,34
53.8167,23
53.8353,28
53.8538,29
53.8724,26
53.8910,22
53.9096,34
53.9281,34
53.9467,38
53.9653,40
53.9839,40
54.0024,53
54.0210,31
54.0396,31
54.0582,19
54.0767,34
54.0953,39
54.1139,38
54.1325,50
54.1510,36
54.1696,37
54.1882,40
54.2068,24
54.2253,34
54.2439,25
54.2625,30
54.2811,31
54.2996,30
54.3182,21
54.3368,28
54.3554,29
54.3739,22
54.3925,23
54.4111,11
54.4297,28
54.4482,31
54.4668,33
54.4854,29
54.5040,40
54.5225,27
54.5411,33
54.5597,32
54.5783,34
54.5969,34
54.6154,24
54.6340,26
54.6526,35
54.6712,35
54.6897,31
54.7083,26
54.7269,37
54.7455,25
54.7640,30
54.7826,25
54.8012,26
54.8198,37
54.8383,29
54.8569,29
54.8755,26
54.8941,28
54.9126,31
54.9312,31
54.9498,31
54.9684,24
54.9869,26
55.0055,26
55.0241,32
55.0427,22
55.0612,20
55.0798,25
55.0984,23
55.1170,29
55.1355,24
55.1541,20
55.1727,31
55.1913,15
55.2098,37
55.2284,21
55.2470,32
55.2656,29
55.2841,32
55.3027,22
55.3213,19
55.3399,27
55.3585,23
55.3770,25
55.3956,32
55.4142,25
55.4328,31
55.4513,31
55.4699,25
55.4885,31
55.5071,30
55.5256,31
55.5442,26
55.5628,33
55.5814,31
55.5999,28
55.6185,32
55.6371,21
55.6557,19
55.6742,28
55.6928,32
55.7114,25
55.7300,29
55.7485,26
55.7671,20
55.7857,31
55.8043,37
55.8228,27
55.8414,24
55.8600,30
55.8786,32
55.8971,26
55.9157,32
55.9343,33
55.9529,28
55.9714,33
55.9900,32
56.0086,35
56.0272,30
56.0457,23
56.0643,25
56.0829,26
56.1015,30
56.1201,24
56.1386,34
56.1572,32
56.1758,34
56.1944,34
56.2129,27
56.2315,32
56.2501,38
56.2687,34
56.2872,33
56.3058,32
56.3244,29
56.3430,29
56.3615,39
56.3801,30
56.3987,28
56.4173,31
56.4358,24
56.4544,30
56.4730,32
56.4916,33
56.5101,33
56.5287,28
56.5473,22
56.5659,30
56.5844,29
56.6030,23
56.6216,27
56.6402,27
56.6587,29
56.6773,21
56.6959,24
56.7145,40
56.7330,28
56.7516,23
56.7702,16
56.7888,28
56.8073,24
56.8259,37
56.8445,25
56.8631,27
56.8817,26
56.9002,30
56.9188,22
56.9374,18
56.9560,30
56.9745,24
56.9931,33
57.0117,26
57.0303,34
57.0488,25
57.0674,25
57.0860,16
57.1046,23
57.1231,30
57.1417,24
57.1603,27
57.1789,30
57.1974,22
57.2160,22
57.2346,27
57.2532,24
57.2717,24
57.2903,27
57.3089,33
57.3275,22
57.3460,29
57.3646,26
57.3832,26
57.4018,29
57.4203,26
57.4389,40
57.4575,17
57.4761,26
57.4946,33
57.5132,36
57.5318,43
57.5504,29
57.5689,26
57.5875,30
57.6061,33
57.6247,24
57.6433,33
57.6618,35
57.6804,19
57.6990,29
57.7176,27
57.7361,35
57.7547,31
57.7733,21
57.7919,27
57.8104,21
57.8290,21
57.8476,28
57.8662,30
57.8847,26
57.9033,36
57.9219,33
57.9405,31
57.9590,20
57.9776,29
57.9962,37
58.0148,25
58.0333,33
58.0519,43
58.0705,28
58.0891,29
58.1076,31
58.1262,34
58.1448,34
58.1634,17
58.1819,31
58.2005,22
58.2191,29
58.2377,31
58.2562,40
58.2748,34
58.2934,34
58.3120,25
58.3305,18
58.3491,30
58.3677,28
58.3863,24
58.4049,30
58.4234,26
58.4420,25
58.4606,21
58.4792,30
58.4977,30
58.5163,26
58.5349,28
58.5535,24
58.5720,31
58.5906,28
58.6092,36
58.6278,37
58.6463,20
58.6649,19
58.6835,41
58.7021,24
58.7206,32
58.7392,22
58.7578,24
58.7764,40
58.7949,23
58.8135,31
58.8321,27
58.8507,19
58.8692,26
58.8878,20
58.9064,27
58.9250,30
58.9435,28
58.9621,26
58.9807,32
58.9993,29
59.0178,32
59.0364,22
59.0550,25
59.0736,23
59.0921,29
59.1107,35
59.1293,28
59.1479,32
59.1664,29
59.1850,21
59.2036,18
59.2222,22
59.2408,23
59.2593,36
59.2779,34
59.2965,26
59.3151,23
59.3336,35
59.3522,30
59.3708,25
59.3894,27
59.4079,18
59.4265,29
59.4451,20
59.4637,20
59.4822,37
59.5008,33
59.5194,23
59.5380,28
59.5565,39
59.5751,25
59.5937,27
59.6123,31
59.6308,27
59.6494,18
59.6680,18
59.6866,22
59.7051,26
59.7237,23
59.7423,42
59.7609,29
59.7794,22
59.7980,22
59.8166,24
59.8352,27
59.8537,25
59.8723,29
59.8909,30
59.9095,36
59.9280,31
59.9466,28
59.9652,27
59.9838,30
60.0024,35
