; (content of file Y:\Sam\Apurva-07-20-2022\puck2\ML_20220720_33_SJD_0_LaB6-1min.raw)
_FILEVERSION = 3
_SAMPLE = ML_20220720_33_SJD_0_LaB6-1mi
_+SAMPLE = 
_SITE = USA
_USER = Administrator
_GONIOMETER_CODE = 20
; Goniometer : D8 theta/2theta, stage : Unknown
_ATTACHMENTS_CODE = 0
_GONIOMETER_RADIUS = 200.5
_FIXED_DIVSLIT = 0.6
_FIXED_SAMPLESLIT = 0
_SOLLER_SLITS = 2
_FIXED_DETSLIT = 9.55
_MONOCHROMATOR = 0
; Incident beam monochromator : None
_SOLLER_SLITS_2 = N
_THIN_FILM = N
_BETA_FILTER = Y
_FIXED_ANTISLIT = 5.89
_ANALYZER_CODE = 0
; Received beam analyzer : None
_DATEMEASURED = "25-Jul-2022 18:48:00"
_WL_UNIT = A
_WL1 = 1.5406
_WL2 = 1.54439
_WL3 = 1.39222
_WLRATIO = 0.5
_ANODE = Cu
_V4_INF_CREATOR = XRDWizard
_V4_INF_CREATOR_VERSION = V2.9.0.22
_V4_INF_WIZARD_VERSION = V2.9.0.22
_V4_INF_WIZARD_ADDINS = V2.9.0.22
_V4_INF_WIZARD_DOCTYPE = XRD
_V4_INF_OSUSER = McQueenLab
_V4_INF_USER = Administrator
_V4_INF_SITE = USA
_V4_INF_SAMPLEID = ML_20220720_33_SJD_0_LaB6-1mi

; Data for range 1
_DRIVE = COUPLED
_STEPTIME = 4.23
_STEPSIZE = 0.0185756
_STEPMODE = C
_START = 5
_THETA = 2.5
_2THETA = 5
_KHI = 0
_PHI = 0
_X = 0
_Y = 0
_Z = 0
_DETECTOR = 5
; Detector type : Unknown
_DETECTORSLIT = unkn
_AUX1 = 0
_AUX2 = 0
_AUX3 = 0
_TIMESTARTED = 15
_TEMP_RATE = -1
_TEMP_DELAY = -1
_KV = 40
_MA = 40
_RANGE_WL = 1.5406
_3DPLANE = 0
_V4_ADDITIONALDETECTOR = 257
_V4_PSD2THETA = 3.3733
_V4_PSDCHANNEL1 = 0
_V4_PSDAPERTURE = 12.68
_V4_PSDTYPE = 5
_V4_PSDFIXED = 0
_V4_COUNTERS_MASK = 4096
_V4_DRIVES_MASK = 0
_V4_ENCODERS_MASK = 0
_2THETACOUNTS = 1
; 2THETA  PSD
   5.0000        115
   5.0186         99
   5.0372         85
   5.0557         80
   5.0743        106
   5.0929        103
   5.1115        100
   5.1300         79
   5.1486         91
   5.1672        103
   5.1858         94
   5.2043         97
   5.2229        100
   5.2415         82
   5.2601         75
   5.2786         76
   5.2972         82
   5.3158         98
   5.3344         61
   5.3529         63
   5.3715        100
   5.3901         74
   5.4087         87
   5.4272         83
   5.4458         75
   5.4644         77
   5.4830         91
   5.5015         83
   5.5201         65
   5.5387         92
   5.5573         78
   5.5758         99
   5.5944         91
   5.6130         89
   5.6316         90
   5.6501         76
   5.6687         85
   5.6873         80
   5.7059         69
   5.7244         91
   5.7430         75
   5.7616         95
   5.7802         77
   5.7988         66
   5.8173         60
   5.8359         76
   5.8545         84
   5.8731         73
   5.8916         88
   5.9102         78
   5.9288         74
   5.9474         90
   5.9659         73
   5.9845         68
   6.0031         60
   6.0217         57
   6.0402         90
   6.0588         70
   6.0774         83
   6.0960         73
   6.1145         60
   6.1331         55
   6.1517         70
   6.1703         64
   6.1888         57
   6.2074         57
   6.2260         65
   6.2446         76
   6.2631         61
   6.2817         69
   6.3003         69
   6.3189         63
   6.3374         67
   6.3560         62
   6.3746         79
   6.3932         66
   6.4117         59
   6.4303         57
   6.4489         64
   6.4675         78
   6.4860         53
   6.5046         71
   6.5232         52
   6.5418         67
   6.5604         64
   6.5789         51
   6.5975         70
   6.6161         65
   6.6347         61
   6.6532         61
   6.6718         72
   6.6904         76
   6.7090         60
   6.7275         83
   6.7461         64
   6.7647         66
   6.7833         58
   6.8018         68
   6.8204         66
   6.8390         60
   6.8576         57
   6.8761         67
   6.8947         61
   6.9133         78
   6.9319         57
   6.9504         64
   6.9690         62
   6.9876         54
   7.0062         55
   7.0247         60
   7.0433         61
   7.0619         53
   7.0805         65
   7.0990         62
   7.1176         49
   7.1362         62
   7.1548         44
   7.1733         62
   7.1919         57
   7.2105         65
   7.2291         65
   7.2476         63
   7.2662         64
   7.2848         47
   7.3034         61
   7.3220         66
   7.3405         61
   7.3591         65
   7.3777         73
   7.3963         54
   7.4148         57
   7.4334         60
   7.4520         62
   7.4706         61
   7.4891         71
   7.5077         53
   7.5263         62
   7.5449         63
   7.5634         65
   7.5820         64
   7.6006         64
   7.6192         66
   7.6377         79
   7.6563         61
   7.6749         60
   7.6935         60
   7.7120         58
   7.7306         55
   7.7492         62
   7.7678         61
   7.7863         57
   7.8049         70
   7.8235         78
   7.8421         65
   7.8606         72
   7.8792         70
   7.8978         61
   7.9164         62
   7.9349         72
   7.9535         65
   7.9721         74
   7.9907         75
   8.0092         74
   8.0278         68
   8.0464         64
   8.0650         60
   8.0835         62
   8.1021         67
   8.1207         62
   8.1393         60
   8.1579         65
   8.1764         67
   8.1950         74
   8.2136         66
   8.2322         73
   8.2507         80
   8.2693         71
   8.2879         65
   8.3065         66
   8.3250         79
   8.3436         74
   8.3622         70
   8.3808         63
   8.3993         64
   8.4179         75
   8.4365         69
   8.4551         70
   8.4736         73
   8.4922         73
   8.5108         68
   8.5294         63
   8.5479         72
   8.5665         64
   8.5851         81
   8.6037         64
   8.6222         67
   8.6408         69
   8.6594         69
   8.6780         83
   8.6965         85
   8.7151         79
   8.7337         88
   8.7523         90
   8.7708         74
   8.7894         85
   8.8080         78
   8.8266         81
   8.8451         78
   8.8637         80
   8.8823         77
   8.9009         78
   8.9195         69
   8.9380         88
   8.9566         72
   8.9752         71
   8.9938         77
   9.0123         67
   9.0309         82
   9.0495         89
   9.0681         77
   9.0866         79
   9.1052         77
   9.1238         95
   9.1424         73
   9.1609         69
   9.1795         82
   9.1981         82
   9.2167         71
   9.2352         82
   9.2538         87
   9.2724         63
   9.2910         73
   9.3095         86
   9.3281         90
   9.3467         89
   9.3653         83
   9.3838         87
   9.4024         78
   9.4210         73
   9.4396         95
   9.4581         85
   9.4767         61
   9.4953         80
   9.5139         80
   9.5324         77
   9.5510         84
   9.5696         72
   9.5882         73
   9.6067         84
   9.6253         74
   9.6439         75
   9.6625         74
   9.6811         89
   9.6996         90
   9.7182         71
   9.7368         84
   9.7554         83
   9.7739         80
   9.7925         70
   9.8111         89
   9.8297         97
   9.8482        103
   9.8668         75
   9.8854         81
   9.9040         80
   9.9225         93
   9.9411        105
   9.9597         81
   9.9783         98
   9.9968         75
  10.0154        101
  10.0340         98
  10.0526         78
  10.0711         91
  10.0897         77
  10.1083         82
  10.1269         81
  10.1454         94
  10.1640         88
  10.1826         92
  10.2012         83
  10.2197        105
  10.2383        100
  10.2569         92
  10.2755         75
  10.2940        104
  10.3126         98
  10.3312         84
  10.3498         82
  10.3683         70
  10.3869         89
  10.4055         95
  10.4241         85
  10.4427         90
  10.4612         98
  10.4798         84
  10.4984         90
  10.5170        113
  10.5355         76
  10.5541        103
  10.5727         85
  10.5913         77
  10.6098         86
  10.6284         94
  10.6470         88
  10.6656         93
  10.6841         95
  10.7027         82
  10.7213         84
  10.7399         77
  10.7584         96
  10.7770        101
  10.7956         85
  10.8142         91
  10.8327         85
  10.8513         73
  10.8699         95
  10.8885         86
  10.9070         91
  10.9256         86
  10.9442         85
  10.9628         86
  10.9813         89
  10.9999         75
  11.0185         80
  11.0371         86
  11.0556         80
  11.0742         80
  11.0928         92
  11.1114         87
  11.1299         90
  11.1485        103
  11.1671         83
  11.1857         81
  11.2043         80
  11.2228         98
  11.2414         87
  11.2600         94
  11.2786        103
  11.2971         86
  11.3157         76
  11.3343         84
  11.3529         88
  11.3714         91
  11.3900        105
  11.4086         89
  11.4272         74
  11.4457         89
  11.4643         90
  11.4829         72
  11.5015         79
  11.5200         99
  11.5386         81
  11.5572        100
  11.5758         76
  11.5943         83
  11.6129         98
  11.6315         95
  11.6501         93
  11.6686         83
  11.6872         78
  11.7058         70
  11.7244         83
  11.7429         87
  11.7615         79
  11.7801         81
  11.7987        111
  11.8172         88
  11.8358         76
  11.8544         95
  11.8730         86
  11.8915         71
  11.9101         75
  11.9287        104
  11.9473         77
  11.9659         77
  11.9844         73
  12.0030         82
  12.0216         86
  12.0402         92
  12.0587         80
  12.0773         68
  12.0959         73
  12.1145         71
  12.1330         89
  12.1516         78
  12.1702         72
  12.1888         73
  12.2073         90
  12.2259         82
  12.2445         90
  12.2631         94
  12.2816         84
  12.3002         86
  12.3188         75
  12.3374         85
  12.3559         86
  12.3745         83
  12.3931         75
  12.4117         82
  12.4302        100
  12.4488         83
  12.4674         84
  12.4860         74
  12.5045         75
  12.5231         72
  12.5417         79
  12.5603         73
  12.5788         68
  12.5974         87
  12.6160         69
  12.6346         69
  12.6531         67
  12.6717         88
  12.6903         62
  12.7089         59
  12.7274         67
  12.7460         75
  12.7646         80
  12.7832         97
  12.8018         75
  12.8203         62
  12.8389         87
  12.8575         88
  12.8761         81
  12.8946         84
  12.9132         81
  12.9318         79
  12.9504         83
  12.9689         75
  12.9875         84
  13.0061         65
  13.0247         77
  13.0432         78
  13.0618         76
  13.0804         83
  13.0990         76
  13.1175         90
  13.1361         77
  13.1547         68
  13.1733         71
  13.1918         86
  13.2104         82
  13.2290         81
  13.2476         74
  13.2661         77
  13.2847         62
  13.3033         71
  13.3219         78
  13.3404         72
  13.3590         76
  13.3776         55
  13.3962         72
  13.4147         72
  13.4333         61
  13.4519         74
  13.4705         75
  13.4890         60
  13.5076         81
  13.5262         79
  13.5448         80
  13.5634         77
  13.5819         79
  13.6005         66
  13.6191         69
  13.6377         70
  13.6562         66
  13.6748         70
  13.6934         60
  13.7120         59
  13.7305         78
  13.7491         68
  13.7677         66
  13.7863         56
  13.8048         68
  13.8234         74
  13.8420         63
  13.8606         77
  13.8791         63
  13.8977         63
  13.9163         72
  13.9349         65
  13.9534         70
  13.9720         53
  13.9906         77
  14.0092         63
  14.0277         76
  14.0463         69
  14.0649         69
  14.0835         72
  14.1020         71
  14.1206         65
  14.1392         87
  14.1578         61
  14.1763         72
  14.1949         66
  14.2135         55
  14.2321         54
  14.2506         60
  14.2692         61
  14.2878         60
  14.3064         58
  14.3250         72
  14.3435         55
  14.3621         44
  14.3807         52
  14.3993         60
  14.4178         56
  14.4364         66
  14.4550         60
  14.4736         56
  14.4921         54
  14.5107         71
  14.5293         67
  14.5479         53
  14.5664         51
  14.5850         72
  14.6036         59
  14.6222         61
  14.6407         71
  14.6593         69
  14.6779         58
  14.6965         49
  14.7150         58
  14.7336         69
  14.7522         72
  14.7708         62
  14.7893         70
  14.8079         55
  14.8265         68
  14.8451         56
  14.8636         59
  14.8822         69
  14.9008         61
  14.9194         64
  14.9379         58
  14.9565         50
  14.9751         53
  14.9937         62
  15.0122         62
  15.0308         52
  15.0494         72
  15.0680         54
  15.0866         69
  15.1051         57
  15.1237         66
  15.1423         60
  15.1609         60
  15.1794         45
  15.1980         50
  15.2166         61
  15.2352         62
  15.2537         56
  15.2723         65
  15.2909         50
  15.3095         60
  15.3280         67
  15.3466         52
  15.3652         68
  15.3838         63
  15.4023         57
  15.4209         53
  15.4395         55
  15.4581         59
  15.4766         73
  15.4952         51
  15.5138         74
  15.5324         58
  15.5509         68
  15.5695         52
  15.5881         50
  15.6067         57
  15.6252         58
  15.6438         54
  15.6624         64
  15.6810         69
  15.6995         50
  15.7181         64
  15.7367         77
  15.7553         77
  15.7738         65
  15.7924         76
  15.8110         66
  15.8296         67
  15.8482         52
  15.8667         60
  15.8853         48
  15.9039         52
  15.9225         54
  15.9410         52
  15.9596         55
  15.9782         58
  15.9968         55
  16.0153         71
  16.0339         59
  16.0525         58
  16.0711         62
  16.0896         69
  16.1082         50
  16.1268         59
  16.1454         63
  16.1639         60
  16.1825         57
  16.2011         71
  16.2197         55
  16.2382         57
  16.2568         76
  16.2754         56
  16.2940         58
  16.3125         60
  16.3311         60
  16.3497         49
  16.3683         60
  16.3868         51
  16.4054         49
  16.4240         58
  16.4426         60
  16.4611         66
  16.4797         53
  16.4983         59
  16.5169         60
  16.5354         57
  16.5540         55
  16.5726         62
  16.5912         65
  16.6097         55
  16.6283         54
  16.6469         51
  16.6655         62
  16.6841         58
  16.7026         69
  16.7212         57
  16.7398         62
  16.7584         65
  16.7769         58
  16.7955         60
  16.8141         63
  16.8327         54
  16.8512         57
  16.8698         68
  16.8884         66
  16.9070         55
  16.9255         56
  16.9441         66
  16.9627         57
  16.9813         58
  16.9998         90
  17.0184         70
  17.0370         71
  17.0556         69
  17.0741         57
  17.0927         60
  17.1113         58
  17.1299         48
  17.1484         69
  17.1670         42
  17.1856         63
  17.2042         54
  17.2227         62
  17.2413         60
  17.2599         64
  17.2785         51
  17.2970         70
  17.3156         69
  17.3342         62
  17.3528         41
  17.3713         63
  17.3899         53
  17.4085         52
  17.4271         75
  17.4457         74
  17.4642         72
  17.4828         52
  17.5014         57
  17.5200         71
  17.5385         50
  17.5571         52
  17.5757         69
  17.5943         53
  17.6128         65
  17.6314         54
  17.6500         49
  17.6686         67
  17.6871         60
  17.7057         71
  17.7243         62
  17.7429         60
  17.7614         59
  17.7800         54
  17.7986         51
  17.8172         65
  17.8357         50
  17.8543         65
  17.8729         65
  17.8915         64
  17.9100         48
  17.9286         62
  17.9472         52
  17.9658         52
  17.9843         54
  18.0029         69
  18.0215         53
  18.0401         67
  18.0586         53
  18.0772         52
  18.0958         64
  18.1144         58
  18.1329         59
  18.1515         70
  18.1701         61
  18.1887         61
  18.2073         49
  18.2258         51
  18.2444         54
  18.2630         55
  18.2816         54
  18.3001         69
  18.3187         65
  18.3373         63
  18.3559         66
  18.3744         62
  18.3930         71
  18.4116         65
  18.4302         52
  18.4487         55
  18.4673         64
  18.4859         66
  18.5045         65
  18.5230         71
  18.5416         71
  18.5602         65
  18.5788         61
  18.5973         72
  18.6159         54
  18.6345         55
  18.6531         65
  18.6716         65
  18.6902         55
  18.7088         62
  18.7274         51
  18.7459         63
  18.7645         54
  18.7831         55
  18.8017         52
  18.8202         68
  18.8388         65
  18.8574         68
  18.8760         56
  18.8945         74
  18.9131         51
  18.9317         69
  18.9503         53
  18.9689         56
  18.9874         71
  19.0060         61
  19.0246         52
  19.0432         62
  19.0617         55
  19.0803         60
  19.0989         73
  19.1175         64
  19.1360         65
  19.1546         71
  19.1732         62
  19.1918         78
  19.2103         66
  19.2289         58
  19.2475         57
  19.2661         52
  19.2846         77
  19.3032         62
  19.3218         59
  19.3404         74
  19.3589         71
  19.3775         69
  19.3961         59
  19.4147         55
  19.4332         60
  19.4518         61
  19.4704         57
  19.4890         61
  19.5075         73
  19.5261         59
  19.5447         57
  19.5633         56
  19.5818         65
  19.6004         74
  19.6190         81
  19.6376         74
  19.6561         74
  19.6747         70
  19.6933         66
  19.7119         51
  19.7305         68
  19.7490         62
  19.7676         69
  19.7862         62
  19.8048         76
  19.8233         64
  19.8419         65
  19.8605         48
  19.8791         57
  19.8976         65
  19.9162         65
  19.9348         68
  19.9534         66
  19.9719         76
  19.9905         76
  20.0091         62
  20.0277         73
  20.0462         59
  20.0648         68
  20.0834         51
  20.1020         70
  20.1205         51
  20.1391         70
  20.1577         70
  20.1763         69
  20.1948         70
  20.2134         63
  20.2320         66
  20.2506         61
  20.2691         56
  20.2877         84
  20.3063         48
  20.3249         70
  20.3434         54
  20.3620         67
  20.3806         78
  20.3992         68
  20.4177         75
  20.4363         69
  20.4549         71
  20.4735         72
  20.4921         80
  20.5106         61
  20.5292         68
  20.5478         59
  20.5664         77
  20.5849         62
  20.6035         73
  20.6221         59
  20.6407         62
  20.6592         85
  20.6778         59
  20.6964         60
  20.7150         61
  20.7335         79
  20.7521         70
  20.7707         84
  20.7893         59
  20.8078         64
  20.8264         62
  20.8450         66
  20.8636         78
  20.8821         72
  20.9007         58
  20.9193         65
  20.9379         83
  20.9564         71
  20.9750         55
  20.9936         62
  21.0122         66
  21.0307         78
  21.0493         68
  21.0679         64
  21.0865         58
  21.1050         62
  21.1236         83
  21.1422         84
  21.1608         85
  21.1793         86
  21.1979         90
  21.2165        111
  21.2351        106
  21.2537        109
  21.2722        122
  21.2908        114
  21.3094        125
  21.3280        150
  21.3465        181
  21.3651        197
  21.3837        156
  21.4023        145
  21.4208        112
  21.4394         81
  21.4580         71
  21.4766         73
  21.4951         83
  21.5137         69
  21.5323         77
  21.5509         80
  21.5694         80
  21.5880         69
  21.6066         81
  21.6252         73
  21.6437         67
  21.6623         74
  21.6809         88
  21.6995         71
  21.7180         81
  21.7366         68
  21.7552         83
  21.7738         72
  21.7923         61
  21.8109         76
  21.8295         75
  21.8481         74
  21.8666         65
  21.8852         76
  21.9038         69
  21.9224         66
  21.9409         77
  21.9595         76
  21.9781         68
  21.9967         60
  22.0152         82
  22.0338         64
  22.0524         66
  22.0710         72
  22.0896         80
  22.1081         75
  22.1267         72
  22.1453         64
  22.1639         72
  22.1824         69
  22.2010         58
  22.2196         65
  22.2382         78
  22.2567         74
  22.2753         63
  22.2939         69
  22.3125         47
  22.3310         71
  22.3496         81
  22.3682         75
  22.3868         72
  22.4053         69
  22.4239         71
  22.4425         68
  22.4611         65
  22.4796         83
  22.4982         79
  22.5168         63
  22.5354         80
  22.5539         78
  22.5725         73
  22.5911         80
  22.6097         78
  22.6282         69
  22.6468         85
  22.6654         69
  22.6840         58
  22.7025         78
  22.7211         85
  22.7397         60
  22.7583         77
  22.7768         70
  22.7954         58
  22.8140         71
  22.8326         69
  22.8512         61
  22.8697         76
  22.8883         72
  22.9069         76
  22.9255         81
  22.9440         66
  22.9626         56
  22.9812         63
  22.9998         73
  23.0183         68
  23.0369         89
  23.0555         63
  23.0741         89
  23.0926         81
  23.1112         65
  23.1298         63
  23.1484         80
  23.1669         55
  23.1855         74
  23.2041         65
  23.2227         96
  23.2412         76
  23.2598         85
  23.2784         77
  23.2970         62
  23.3155         54
  23.3341         83
  23.3527         76
  23.3713         61
  23.3898         71
  23.4084         75
  23.4270         63
  23.4456         81
  23.4641         68
  23.4827         72
  23.5013         70
  23.5199         73
  23.5384         71
  23.5570         67
  23.5756         72
  23.5942         82
  23.6128         65
  23.6313         72
  23.6499         72
  23.6685         80
  23.6871         60
  23.7056         69
  23.7242         92
  23.7428         86
  23.7614         78
  23.7799         79
  23.7985         74
  23.8171         66
  23.8357         83
  23.8542         70
  23.8728         74
  23.8914         70
  23.9100         64
  23.9285         73
  23.9471         84
  23.9657         74
  23.9843         63
  24.0028         94
  24.0214         90
  24.0400         83
  24.0586         80
  24.0771         78
  24.0957         78
  24.1143         77
  24.1329         64
  24.1514         74
  24.1700         68
  24.1886         61
  24.2072         80
  24.2257         63
  24.2443         94
  24.2629         94
  24.2815         99
  24.3000         75
  24.3186         82
  24.3372         64
  24.3558         76
  24.3744         82
  24.3929         95
  24.4115         65
  24.4301         75
  24.4487         80
  24.4672         72
  24.4858         68
  24.5044         73
  24.5230         77
  24.5415         75
  24.5601         87
  24.5787         76
  24.5973         84
  24.6158         73
  24.6344         81
  24.6530         75
  24.6716         70
  24.6901         73
  24.7087         66
  24.7273         74
  24.7459         70
  24.7644         86
  24.7830         92
  24.8016         71
  24.8202         62
  24.8387         76
  24.8573         79
  24.8759         66
  24.8945         79
  24.9130         72
  24.9316         75
  24.9502         76
  24.9688         88
  24.9873         69
  25.0059         72
  25.0245         70
  25.0431         84
  25.0616         71
  25.0802         79
  25.0988         72
  25.1174         70
  25.1360         72
  25.1545         70
  25.1731         84
  25.1917         83
  25.2103         71
  25.2288         80
  25.2474         74
  25.2660         70
  25.2846         77
  25.3031         72
  25.3217         74
  25.3403         81
  25.3589         57
  25.3774         57
  25.3960         75
  25.4146         78
  25.4332         53
  25.4517         75
  25.4703         60
  25.4889         57
  25.5075         78
  25.5260         55
  25.5446         78
  25.5632         62
  25.5818         74
  25.6003         83
  25.6189         78
  25.6375         62
  25.6561         60
  25.6746         63
  25.6932         66
  25.7118         69
  25.7304         68
  25.7489         72
  25.7675         55
  25.7861         86
  25.8047         65
  25.8232         75
  25.8418         81
  25.8604         66
  25.8790         59
  25.8976         71
  25.9161         65
  25.9347         73
  25.9533         56
  25.9719         78
  25.9904         76
  26.0090         71
  26.0276         72
  26.0462         68
  26.0647         70
  26.0833         76
  26.1019         74
  26.1205         84
  26.1390         56
  26.1576         71
  26.1762         69
  26.1948         72
  26.2133         71
  26.2319         66
  26.2505         85
  26.2691         62
  26.2876         64
  26.3062         65
  26.3248         55
  26.3434         66
  26.3619         80
  26.3805         72
  26.3991         75
  26.4177         77
  26.4362         76
  26.4548         59
  26.4734         67
  26.4920         68
  26.5105         66
  26.5291         80
  26.5477         68
  26.5663         70
  26.5848         78
  26.6034         81
  26.6220         64
  26.6406         66
  26.6591         73
  26.6777         73
  26.6963         65
  26.7149         73
  26.7335         66
  26.7520         65
  26.7706         85
  26.7892         64
  26.8078         63
  26.8263         68
  26.8449         78
  26.8635         62
  26.8821         79
  26.9006         54
  26.9192         77
  26.9378         79
  26.9564         76
  26.9749         75
  26.9935         74
  27.0121         69
  27.0307         53
  27.0492         71
  27.0678         63
  27.0864         82
  27.1050         71
  27.1235         63
  27.1421         69
  27.1607         94
  27.1793         82
  27.1978         90
  27.2164         76
  27.2350         76
  27.2536         97
  27.2721         86
  27.2907         83
  27.3093         69
  27.3279         49
  27.3464         72
  27.3650         68
  27.3836         78
  27.4022         76
  27.4207         83
  27.4393         62
  27.4579         93
  27.4765         72
  27.4951         54
  27.5136         67
  27.5322         78
  27.5508         61
  27.5694         66
  27.5879         68
  27.6065         66
  27.6251         59
  27.6437         59
  27.6622         67
  27.6808         77
  27.6994         66
  27.7180         62
  27.7365         52
  27.7551         65
  27.7737         69
  27.7923         54
  27.8108         61
  27.8294         40
  27.8480         68
  27.8666         74
  27.8851         76
  27.9037         75
  27.9223         67
  27.9409         60
  27.9594         57
  27.9780         71
  27.9966         52
  28.0152         56
  28.0337         49
  28.0523         68
  28.0709         70
  28.0895         73
  28.1080         56
  28.1266         64
  28.1452         58
  28.1638         64
  28.1823         61
  28.2009         50
  28.2195         66
  28.2381         66
  28.2567         68
  28.2752         65
  28.2938         48
  28.3124         56
  28.3310         54
  28.3495         68
  28.3681         61
  28.3867         49
  28.4053         59
  28.4238         56
  28.4424         60
  28.4610         66
  28.4796         60
  28.4981         63
  28.5167         66
  28.5353         68
  28.5539         81
  28.5724         71
  28.5910         56
  28.6096         63
  28.6282         61
  28.6467         65
  28.6653         85
  28.6839         68
  28.7025         77
  28.7210         56
  28.7396         54
  28.7582         49
  28.7768         73
  28.7953         47
  28.8139         59
  28.8325         58
  28.8511         74
  28.8696         72
  28.8882         53
  28.9068         51
  28.9254         59
  28.9439         64
  28.9625         65
  28.9811         51
  28.9997         44
  29.0183         60
  29.0368         56
  29.0554         57
  29.0740         61
  29.0926         57
  29.1111         59
  29.1297         47
  29.1483         66
  29.1669         79
  29.1854         65
  29.2040         57
  29.2226         59
  29.2412         54
  29.2597         65
  29.2783         49
  29.2969         60
  29.3155         51
  29.3340         65
  29.3526         53
  29.3712         62
  29.3898         53
  29.4083         64
  29.4269         41
  29.4455         61
  29.4641         71
  29.4826         53
  29.5012         61
  29.5198         50
  29.5384         67
  29.5569         64
  29.5755         61
  29.5941         69
  29.6127         56
  29.6312         57
  29.6498         61
  29.6684         71
  29.6870         67
  29.7055         66
  29.7241         57
  29.7427         42
  29.7613         65
  29.7799         41
  29.7984         55
  29.8170         48
  29.8356         62
  29.8542         43
  29.8727         51
  29.8913         59
  29.9099         61
  29.9285         61
  29.9470         49
  29.9656         48
  29.9842         58
  30.0028         48
  30.0213         64
  30.0399         57
  30.0585         60
  30.0771         55
  30.0956         61
  30.1142         47
  30.1328         59
  30.1514         56
  30.1699         58
  30.1885         63
  30.2071         59
  30.2257         52
  30.2442         67
  30.2628         76
  30.2814         57
  30.3000         72
  30.3185         73
  30.3371         74
  30.3557         94
  30.3743        122
  30.3928        134
  30.4114        109
  30.4300         75
  30.4486         94
  30.4671         83
  30.4857         73
  30.5043         65
  30.5229         70
  30.5415         64
  30.5600         52
  30.5786         55
  30.5972         51
  30.6158         63
  30.6343         59
  30.6529         59
  30.6715         46
  30.6901         43
  30.7086         48
  30.7272         55
  30.7458         54
  30.7644         52
  30.7829         48
  30.8015         34
  30.8201         50
  30.8387         48
  30.8572         39
  30.8758         55
  30.8944         47
  30.9130         69
  30.9315         45
  30.9501         64
  30.9687         61
  30.9873         44
  31.0058         54
  31.0244         53
  31.0430         42
  31.0616         47
  31.0801         54
  31.0987         46
  31.1173         50
  31.1359         51
  31.1544         45
  31.1730         46
  31.1916         41
  31.2102         48
  31.2287         57
  31.2473         48
  31.2659         47
  31.2845         48
  31.3030         44
  31.3216         58
  31.3402         48
  31.3588         45
  31.3774         50
  31.3959         48
  31.4145         58
  31.4331         54
  31.4517         46
  31.4702         52
  31.4888         60
  31.5074         55
  31.5260         54
  31.5445         51
  31.5631         40
  31.5817         51
  31.6003         70
  31.6188         64
  31.6374         65
  31.6560         42
  31.6746         56
  31.6931         48
  31.7117         49
  31.7303         41
  31.7489         57
  31.7674         47
  31.7860         54
  31.8046         72
  31.8232         49
  31.8417         34
  31.8603         50
  31.8789         47
  31.8975         54
  31.9160         55
  31.9346         46
  31.9532         40
  31.9718         41
  31.9903         54
  32.0089         59
  32.0275         50
  32.0461         53
  32.0646         44
  32.0832         36
  32.1018         44
  32.1204         74
  32.1390         52
  32.1575         49
  32.1761         49
  32.1947         46
  32.2133         61
  32.2318         55
  32.2504         50
  32.2690         46
  32.2876         44
  32.3061         40
  32.3247         57
  32.3433         37
  32.3619         34
  32.3804         47
  32.3990         49
  32.4176         45
  32.4362         60
  32.4547         55
  32.4733         52
  32.4919         63
  32.5105         60
  32.5290         56
  32.5476         50
  32.5662         47
  32.5848         44
  32.6033         45
  32.6219         48
  32.6405         52
  32.6591         53
  32.6776         66
  32.6962         48
  32.7148         44
  32.7334         45
  32.7519         44
  32.7705         63
  32.7891         48
  32.8077         42
  32.8262         39
  32.8448         46
  32.8634         60
  32.8820         48
  32.9006         50
  32.9191         39
  32.9377         52
  32.9563         39
  32.9749         46
  32.9934         52
  33.0120         47
  33.0306         42
  33.0492         38
  33.0677         46
  33.0863         48
  33.1049         34
  33.1235         44
  33.1420         47
  33.1606         48
  33.1792         52
  33.1978         48
  33.2163         43
  33.2349         45
  33.2535         38
  33.2721         60
  33.2906         42
  33.3092         50
  33.3278         45
  33.3464         43
  33.3649         50
  33.3835         50
  33.4021         51
  33.4207         29
  33.4392         48
  33.4578         42
  33.4764         55
  33.4950         47
  33.5135         44
  33.5321         52
  33.5507         41
  33.5693         48
  33.5878         36
  33.6064         37
  33.6250         40
  33.6436         39
  33.6622         27
  33.6807         35
  33.6993         37
  33.7179         45
  33.7365         43
  33.7550         38
  33.7736         46
  33.7922         27
  33.8108         53
  33.8293         43
  33.8479         31
  33.8665         40
  33.8851         31
  33.9036         50
  33.9222         34
  33.9408         45
  33.9594         46
  33.9779         41
  33.9965         40
  34.0151         41
  34.0337         51
  34.0522         33
  34.0708         49
  34.0894         59
  34.1080         39
  34.1265         45
  34.1451         42
  34.1637         37
  34.1823         37
  34.2008         35
  34.2194         47
  34.2380         31
  34.2566         52
  34.2751         39
  34.2937         42
  34.3123         52
  34.3309         47
  34.3494         62
  34.3680         42
  34.3866         51
  34.4052         38
  34.4238         37
  34.4423         50
  34.4609         42
  34.4795         34
  34.4981         41
  34.5166         45
  34.5352         46
  34.5538         43
  34.5724         42
  34.5909         50
  34.6095         45
  34.6281         46
  34.6467         48
  34.6652         57
  34.6838         57
  34.7024         52
  34.7210         46
  34.7395         53
  34.7581         45
  34.7767         71
  34.7953         55
  34.8138         57
  34.8324         58
  34.8510         50
  34.8696         40
  34.8881         41
  34.9067         56
  34.9253         38
  34.9439         42
  34.9624         46
  34.9810         44
  34.9996         39
  35.0182         33
  35.0367         43
  35.0553         54
  35.0739         45
  35.0925         40
  35.1110         38
  35.1296         30
  35.1482         38
  35.1668         29
  35.1854         28
  35.2039         42
  35.2225         34
  35.2411         54
  35.2597         60
  35.2782         45
  35.2968         42
  35.3154         46
  35.3340         46
  35.3525         36
  35.3711         38
  35.3897         35
  35.4083         33
  35.4268         39
  35.4454         38
  35.4640         46
  35.4826         33
  35.5011         34
  35.5197         42
  35.5383         44
  35.5569         31
  35.5754         38
  35.5940         32
  35.6126         37
  35.6312         46
  35.6497         37
  35.6683         30
  35.6869         30
  35.7055         37
  35.7240         29
  35.7426         24
  35.7612         50
  35.7798         38
  35.7983         28
  35.8169         31
  35.8355         51
  35.8541         38
  35.8726         36
  35.8912         32
  35.9098         23
  35.9284         33
  35.9469         39
  35.9655         33
  35.9841         44
  36.0027         31
  36.0213         42
  36.0398         34
  36.0584         36
  36.0770         23
  36.0956         33
  36.1141         51
  36.1327         38
  36.1513         29
  36.1699         38
  36.1884         40
  36.2070         33
  36.2256         26
  36.2442         38
  36.2627         32
  36.2813         45
  36.2999         39
  36.3185         34
  36.3370         31
  36.3556         43
  36.3742         44
  36.3928         46
  36.4113         42
  36.4299         36
  36.4485         33
  36.4671         33
  36.4856         41
  36.5042         27
  36.5228         44
  36.5414         37
  36.5599         35
  36.5785         34
  36.5971         45
  36.6157         40
  36.6342         29
  36.6528         33
  36.6714         33
  36.6900         41
  36.7085         34
  36.7271         31
  36.7457         50
  36.7643         39
  36.7829         33
  36.8014         37
  36.8200         29
  36.8386         36
  36.8572         45
  36.8757         26
  36.8943         42
  36.9129         39
  36.9315         29
  36.9500         26
  36.9686         33
  36.9872         38
  37.0058         34
  37.0243         36
  37.0429         23
  37.0615         29
  37.0801         41
  37.0986         36
  37.1172         34
  37.1358         30
  37.1544         37
  37.1729         35
  37.1915         38
  37.2101         37
  37.2287         31
  37.2472         25
  37.2658         47
  37.2844         43
  37.3030         38
  37.3215         29
  37.3401         29
  37.3587         39
  37.3773         49
  37.3958         35
  37.4144         50
  37.4330         47
  37.4516         49
  37.4701         50
  37.4887         39
  37.5073         37
  37.5259         31
  37.5445         66
  37.5630         41
  37.5816         38
  37.6002         36
  37.6188         41
  37.6373         30
  37.6559         29
  37.6745         23
  37.6931         34
  37.7116         31
  37.7302         26
  37.7488         30
  37.7674         29
  37.7859         21
  37.8045         38
  37.8231         43
  37.8417         38
  37.8602         33
  37.8788         40
  37.8974         31
  37.9160         35
  37.9345         30
  37.9531         38
  37.9717         32
  37.9903         31
  38.0088         46
  38.0274         23
  38.0460         25
  38.0646         27
  38.0831         33
  38.1017         40
  38.1203         20
  38.1389         34
  38.1574         29
  38.1760         31
  38.1946         30
  38.2132         37
  38.2317         26
  38.2503         27
  38.2689         27
  38.2875         33
  38.3061         29
  38.3246         40
  38.3432         34
  38.3618         33
  38.3804         27
  38.3989         30
  38.4175         32
  38.4361         35
  38.4547         37
  38.4732         27
  38.4918         32
  38.5104         23
  38.5290         23
  38.5475         35
  38.5661         23
  38.5847         33
  38.6033         34
  38.6218         38
  38.6404         29
  38.6590         21
  38.6776         29
  38.6961         28
  38.7147         32
  38.7333         21
  38.7519         35
  38.7704         34
  38.7890         25
  38.8076         36
  38.8262         24
  38.8447         37
  38.8633         28
  38.8819         47
  38.9005         32
  38.9190         25
  38.9376         33
  38.9562         29
  38.9748         27
  38.9933         27
  39.0119         27
  39.0305         20
  39.0491         24
  39.0677         44
  39.0862         29
  39.1048         37
  39.1234         27
  39.1420         34
  39.1605         32
  39.1791         24
  39.1977         26
  39.2163         38
  39.2348         25
  39.2534         25
  39.2720         26
  39.2906         24
  39.3091         32
  39.3277         31
  39.3463         45
  39.3649         37
  39.3834         29
  39.4020         25
  39.4206         36
  39.4392         26
  39.4577         25
  39.4763         33
  39.4949         32
  39.5135         19
  39.5320         34
  39.5506         24
  39.5692         24
  39.5878         31
  39.6063         34
  39.6249         32
  39.6435         31
  39.6621         28
  39.6806         21
  39.6992         29
  39.7178         23
  39.7364         28
  39.7549         27
  39.7735         22
  39.7921         28
  39.8107         32
  39.8293         28
  39.8478         31
  39.8664         37
  39.8850         26
  39.9036         23
  39.9221         22
  39.9407         26
  39.9593         29
  39.9779         25
  39.9964         31
  40.0150         26
  40.0336         23
  40.0522         29
  40.0707         32
  40.0893         39
  40.1079         29
  40.1265         28
  40.1450         33
  40.1636         39
  40.1822         20
  40.2008         28
  40.2193         30
  40.2379         22
  40.2565         34
  40.2751         27
  40.2936         27
  40.3122         19
  40.3308         31
  40.3494         27
  40.3679         19
  40.3865         24
  40.4051         37
  40.4237         36
  40.4422         29
  40.4608         34
  40.4794         26
  40.4980         31
  40.5165         30
  40.5351         26
  40.5537         35
  40.5723         31
  40.5908         22
  40.6094         24
  40.6280         30
  40.6466         24
  40.6652         35
  40.6837         26
  40.7023         30
  40.7209         29
  40.7395         22
  40.7580         27
  40.7766         26
  40.7952         32
  40.8138         23
  40.8323         33
  40.8509         24
  40.8695         40
  40.8881         36
  40.9066         24
  40.9252         30
  40.9438         26
  40.9624         27
  40.9809         35
  40.9995         30
  41.0181         23
  41.0367         29
  41.0552         24
  41.0738         32
  41.0924         30
  41.1110         23
  41.1295         21
  41.1481         33
  41.1667         28
  41.1853         35
  41.2038         28
  41.2224         25
  41.2410         32
  41.2596         31
  41.2781         27
  41.2967         22
  41.3153         23
  41.3339         18
  41.3524         32
  41.3710         37
  41.3896         25
  41.4082         21
  41.4268         30
  41.4453         26
  41.4639         33
  41.4825         31
  41.5011         28
  41.5196         19
  41.5382         30
  41.5568         22
  41.5754         33
  41.5939         30
  41.6125         26
  41.6311         34
  41.6497         19
  41.6682         28
  41.6868         28
  41.7054         25
  41.7240         26
  41.7425         32
  41.7611         26
  41.7797         27
  41.7983         19
  41.8168         35
  41.8354         27
  41.8540         34
  41.8726         27
  41.8911         24
  41.9097         25
  41.9283         25
  41.9469         24
  41.9654         25
  41.9840         23
  42.0026         23
  42.0212         27
  42.0397         25
  42.0583         36
  42.0769         38
  42.0955         25
  42.1140         26
  42.1326         27
  42.1512         26
  42.1698         28
  42.1884         22
  42.2069         32
  42.2255         42
  42.2441         33
  42.2627         24
  42.2812         23
  42.2998         24
  42.3184         31
  42.3370         28
  42.3555         23
  42.3741         28
  42.3927         16
  42.4113         28
  42.4298         20
  42.4484         33
  42.4670         22
  42.4856         26
  42.5041         29
  42.5227         40
  42.5413         22
  42.5599         32
  42.5784         29
  42.5970         27
  42.6156         24
  42.6342         35
  42.6527         25
  42.6713         26
  42.6899         23
  42.7085         34
  42.7270         19
  42.7456         29
  42.7642         23
  42.7828         34
  42.8013         36
  42.8199         26
  42.8385         30
  42.8571         35
  42.8756         21
  42.8942         16
  42.9128         21
  42.9314         22
  42.9500         33
  42.9685         23
  42.9871         31
  43.0057         16
  43.0243         25
  43.0428         24
  43.0614         29
  43.0800         23
  43.0986         18
  43.1171         22
  43.1357         36
  43.1543         21
  43.1729         35
  43.1914         28
  43.2100         33
  43.2286         29
  43.2472         28
  43.2657         32
  43.2843         41
  43.3029         32
  43.3215         30
  43.3400         24
  43.3586         24
  43.3772         22
  43.3958         31
  43.4143         34
  43.4329         20
  43.4515         25
  43.4701         34
  43.4886         41
  43.5072         64
  43.5258         43
  43.5444         38
  43.5629         21
  43.5815         26
  43.6001         37
  43.6187         34
  43.6372         31
  43.6558         36
  43.6744         26
  43.6930         30
  43.7116         18
  43.7301         29
  43.7487         31
  43.7673         39
  43.7859         28
  43.8044         23
  43.8230         27
  43.8416         30
  43.8602         24
  43.8787         44
  43.8973         25
  43.9159         35
  43.9345         27
  43.9530         25
  43.9716         32
  43.9902         26
  44.0088         30
  44.0273         42
  44.0459         29
  44.0645         29
  44.0831         38
  44.1016         27
  44.1202         23
  44.1388         24
  44.1574         26
  44.1759         19
  44.1945         22
  44.2131         25
  44.2317         22
  44.2502         29
  44.2688         22
  44.2874         23
  44.3060         24
  44.3245         32
  44.3431         29
  44.3617         23
  44.3803         30
  44.3988         37
  44.4174         29
  44.4360         25
  44.4546         39
  44.4732         28
  44.4917         30
  44.5103         26
  44.5289         30
  44.5475         40
  44.5660         38
  44.5846         18
  44.6032         29
  44.6218         25
  44.6403         15
  44.6589         31
  44.6775         35
  44.6961         38
  44.7146         32
  44.7332         26
  44.7518         29
  44.7704         27
  44.7889         23
  44.8075         33
  44.8261         27
  44.8447         22
  44.8632         24
  44.8818         27
  44.9004         36
  44.9190         27
  44.9375         19
  44.9561         33
  44.9747         31
  44.9933         21
  45.0118         34
  45.0304         27
  45.0490         28
  45.0676         29
  45.0861         21
  45.1047         26
  45.1233         29
  45.1419         21
  45.1604         25
  45.1790         39
  45.1976         22
  45.2162         25
  45.2347         23
  45.2533         20
  45.2719         25
  45.2905         24
  45.3091         16
  45.3276         25
  45.3462         37
  45.3648         13
  45.3834         27
  45.4019         25
  45.4205         17
  45.4391         24
  45.4577         22
  45.4762         15
  45.4948         22
  45.5134         25
  45.5320         26
  45.5505         27
  45.5691         18
  45.5877         25
  45.6063         30
  45.6248         30
  45.6434         26
  45.6620         35
  45.6806         28
  45.6991         27
  45.7177         22
  45.7363         20
  45.7549         17
  45.7734         19
  45.7920         26
  45.8106         22
  45.8292         28
  45.8477         29
  45.8663         26
  45.8849         26
  45.9035         21
  45.9220         25
  45.9406         33
  45.9592         27
  45.9778         23
  45.9963         24
  46.0149         22
  46.0335         18
  46.0521         22
  46.0707         28
  46.0892         26
  46.1078         18
  46.1264         23
  46.1450         24
  46.1635         23
  46.1821         30
  46.2007         25
  46.2193         32
  46.2378         23
  46.2564         27
  46.2750         26
  46.2936         21
  46.3121         23
  46.3307         23
  46.3493         25
  46.3679         30
  46.3864         27
  46.4050         27
  46.4236         29
  46.4422         32
  46.4607         22
  46.4793         21
  46.4979         20
  46.5165         23
  46.5350         22
  46.5536         27
  46.5722         21
  46.5908         25
  46.6093         23
  46.6279         24
  46.6465         28
  46.6651         21
  46.6836         29
  46.7022         17
  46.7208         24
  46.7394         19
  46.7579         20
  46.7765         23
  46.7951         17
  46.8137         30
  46.8323         21
  46.8508         28
  46.8694         33
  46.8880         22
  46.9066         24
  46.9251         23
  46.9437         25
  46.9623         22
  46.9809         29
  46.9994         21
  47.0180         26
  47.0366         23
  47.0552         22
  47.0737         26
  47.0923         25
  47.1109         27
  47.1295         28
  47.1480         14
  47.1666         20
  47.1852         22
  47.2038         22
  47.2223         29
  47.2409         22
  47.2595         22
  47.2781         23
  47.2966         17
  47.3152         20
  47.3338         19
  47.3524         32
  47.3709         31
  47.3895         23
  47.4081         26
  47.4267         20
  47.4452         23
  47.4638         23
  47.4824         20
  47.5010         23
  47.5195         39
  47.5381         30
  47.5567         15
  47.5753         20
  47.5939         34
  47.6124         20
  47.6310         19
  47.6496         24
  47.6682         24
  47.6867         21
  47.7053         17
  47.7239         24
  47.7425         35
  47.7610         26
  47.7796         23
  47.7982         27
  47.8168         23
  47.8353         31
  47.8539         19
  47.8725         23
  47.8911         23
  47.9096         21
  47.9282         14
  47.9468         25
  47.9654         23
  47.9839         24
  48.0025         29
  48.0211         22
  48.0397         21
  48.0582         26
  48.0768         16
  48.0954         24
  48.1140         29
  48.1325         21
  48.1511         25
  48.1697         20
  48.1883         23
  48.2068         26
  48.2254         13
  48.2440         18
  48.2626         21
  48.2811         19
  48.2997         19
  48.3183         16
  48.3369         23
  48.3555         16
  48.3740         18
  48.3926         18
  48.4112         24
  48.4298         23
  48.4483         19
  48.4669         31
  48.4855         28
  48.5041         19
  48.5226         23
  48.5412         20
  48.5598         21
  48.5784         27
  48.5969         20
  48.6155         24
  48.6341         27
  48.6527         18
  48.6712         19
  48.6898         23
  48.7084         21
  48.7270         25
  48.7455         26
  48.7641         26
  48.7827         14
  48.8013         29
  48.8198         26
  48.8384         17
  48.8570         19
  48.8756         14
  48.8941         19
  48.9127         32
  48.9313         36
  48.9499         39
  48.9684         46
  48.9870         30
  49.0056         29
  49.0242         35
  49.0427         27
  49.0613         43
  49.0799         36
  49.0985         38
  49.1171         26
  49.1356         25
  49.1542         25
  49.1728         16
  49.1914         23
  49.2099         26
  49.2285         24
  49.2471         20
  49.2657         27
  49.2842         23
  49.3028         26
  49.3214         26
  49.3400         15
  49.3585         30
  49.3771         36
  49.3957         21
  49.4143         21
  49.4328         21
  49.4514         24
  49.4700         20
  49.4886         27
  49.5071         21
  49.5257         21
  49.5443         15
  49.5629         27
  49.5814         17
  49.6000         24
  49.6186         19
  49.6372         21
  49.6557         29
  49.6743         18
  49.6929         19
  49.7115         34
  49.7300         18
  49.7486         28
  49.7672         19
  49.7858         22
  49.8043         24
  49.8229         20
  49.8415         18
  49.8601         32
  49.8786         29
  49.8972         23
  49.9158         19
  49.9344         19
  49.9530         26
  49.9715         16
  49.9901         22
  50.0087         25
  50.0273         26
  50.0458         21
  50.0644         26
  50.0830         26
  50.1016         24
  50.1201         23
  50.1387         23
  50.1573         23
  50.1759         25
  50.1944         31
  50.2130         30
  50.2316         22
  50.2502         19
  50.2687         29
  50.2873         22
  50.3059         25
  50.3245         18
  50.3430         26
  50.3616         17
  50.3802         25
  50.3988         23
  50.4173         24
  50.4359         19
  50.4545         21
  50.4731         20
  50.4916         32
  50.5102         23
  50.5288         22
  50.5474         20
  50.5659         20
  50.5845         30
  50.6031         24
  50.6217         20
  50.6402         21
  50.6588         22
  50.6774         20
  50.6960         23
  50.7146         24
  50.7331         20
  50.7517         18
  50.7703         22
  50.7889         22
  50.8074         13
  50.8260         24
  50.8446         21
  50.8632         29
  50.8817         26
  50.9003         18
  50.9189         20
  50.9375         20
  50.9560         18
  50.9746         22
  50.9932         35
  51.0118         23
  51.0303         25
  51.0489         14
  51.0675         23
  51.0861         19
  51.1046         26
  51.1232         23
  51.1418         20
  51.1604         21
  51.1789         23
  51.1975         32
  51.2161         25
  51.2347         19
  51.2532         30
  51.2718         21
  51.2904         25
  51.3090         22
  51.3275         27
  51.3461         15
  51.3647         25
  51.3833         25
  51.4018         32
  51.4204         27
  51.4390         25
  51.4576         22
  51.4762         23
  51.4947         28
  51.5133         23
  51.5319         17
  51.5505         20
  51.5690         26
  51.5876         23
  51.6062         22
  51.6248         17
  51.6433         22
  51.6619         23
  51.6805         22
  51.6991         21
  51.7176         26
  51.7362         21
  51.7548         21
  51.7734         15
  51.7919         16
  51.8105         20
  51.8291         24
  51.8477         20
  51.8662         28
  51.8848         30
  51.9034         27
  51.9220         22
  51.9405         13
  51.9591         20
  51.9777         23
  51.9963         26
  52.0148         20
  52.0334         19
  52.0520         22
  52.0706         32
  52.0891         17
  52.1077         21
  52.1263         23
  52.1449         22
  52.1634         26
  52.1820         20
  52.2006         14
  52.2192         22
  52.2378         24
  52.2563         12
  52.2749         24
  52.2935         24
  52.3121         18
  52.3306         17
  52.3492         21
  52.3678         19
  52.3864         23
  52.4049         22
  52.4235         15
  52.4421         13
  52.4607         18
  52.4792         18
  52.4978         27
  52.5164         17
  52.5350         24
  52.5535         13
  52.5721         11
  52.5907         25
  52.6093         17
  52.6278         27
  52.6464         25
  52.6650         18
  52.6836         22
  52.7021         16
  52.7207         19
  52.7393         17
  52.7579         17
  52.7764         22
  52.7950         23
  52.8136         22
  52.8322         25
  52.8507         15
  52.8693         25
  52.8879         28
  52.9065         16
  52.9250         24
  52.9436         20
  52.9622         23
  52.9808         18
  52.9994         22
  53.0179         26
  53.0365         25
  53.0551         23
  53.0737         24
  53.0922         30
  53.1108         16
  53.1294         20
  53.1480         20
  53.1665         17
  53.1851         31
  53.2037         25
  53.2223         20
  53.2408         24
  53.2594         22
  53.2780         23
  53.2966         25
  53.3151         13
  53.3337         22
  53.3523         23
  53.3709         21
  53.3894         21
  53.4080         23
  53.4266         22
  53.4452         22
  53.4637         19
  53.4823         24
  53.5009         24
  53.5195         23
  53.5380         23
  53.5566         24
  53.5752         17
  53.5938         30
  53.6123         18
  53.6309         24
  53.6495         16
  53.6681         19
  53.6866         27
  53.7052         18
  53.7238         18
  53.7424         22
  53.7610         18
  53.7795         23
  53.7981         21
  53.8167         22
  53.8353         16
  53.8538         18
  53.8724         25
  53.8910         16
  53.9096         29
  53.9281         19
  53.9467         25
  53.9653         31
  53.9839         26
  54.0024         35
  54.0210         32
  54.0396         32
  54.0582         21
  54.0767         32
  54.0953         27
  54.1139         19
  54.1325         35
  54.1510         19
  54.1696         20
  54.1882         29
  54.2068         23
  54.2253         21
  54.2439         20
  54.2625         21
  54.2811         29
  54.2996         22
  54.3182         29
  54.3368         19
  54.3554         20
  54.3739         18
  54.3925         21
  54.4111         22
  54.4297         19
  54.4482         24
  54.4668         26
  54.4854         17
  54.5040         27
  54.5225         19
  54.5411         24
  54.5597         20
  54.5783         22
  54.5969         21
  54.6154         19
  54.6340         18
  54.6526         20
  54.6712         24
  54.6897         28
  54.7083         17
  54.7269         21
  54.7455         17
  54.7640         25
  54.7826         23
  54.8012         18
  54.8198         33
  54.8383         17
  54.8569         18
  54.8755         12
  54.8941         22
  54.9126         18
  54.9312         16
  54.9498         21
  54.9684         18
  54.9869         17
  55.0055         15
  55.0241         14
  55.0427         27
  55.0612         26
  55.0798         21
  55.0984         17
  55.1170         24
  55.1355         22
  55.1541         27
  55.1727         29
  55.1913         20
  55.2098         17
  55.2284         17
  55.2470         27
  55.2656         18
  55.2841         17
  55.3027         22
  55.3213         17
  55.3399         22
  55.3585         23
  55.3770         18
  55.3956         27
  55.4142         21
  55.4328         26
  55.4513         18
  55.4699         21
  55.4885         28
  55.5071         26
  55.5256         15
  55.5442         15
  55.5628         21
  55.5814         13
  55.5999         19
  55.6185         29
  55.6371         24
  55.6557         23
  55.6742         30
  55.6928         28
  55.7114         23
  55.7300         23
  55.7485         25
  55.7671         23
  55.7857         21
  55.8043         25
  55.8228         25
  55.8414         23
  55.8600         20
  55.8786         20
  55.8971         17
  55.9157         14
  55.9343         15
  55.9529         24
  55.9714         25
  55.9900         23
  56.0086         17
  56.0272         20
  56.0457         17
  56.0643         23
  56.0829         24
  56.1015         29
  56.1201         18
  56.1386         22
  56.1572         16
  56.1758         25
  56.1944         20
  56.2129         20
  56.2315         28
  56.2501         27
  56.2687         23
  56.2872         17
  56.3058         15
  56.3244         18
  56.3430         21
  56.3615         26
  56.3801         18
  56.3987         24
  56.4173         23
  56.4358         22
  56.4544         16
  56.4730         20
  56.4916         15
  56.5101         24
  56.5287         14
  56.5473         18
  56.5659         22
  56.5844         25
  56.6030         21
  56.6216         13
  56.6402         23
  56.6587         17
  56.6773         19
  56.6959         25
  56.7145         20
  56.7330         19
  56.7516         22
  56.7702         19
  56.7888         17
  56.8073         21
  56.8259         28
  56.8445         25
  56.8631         27
  56.8817         14
  56.9002         19
  56.9188         20
  56.9374         24
  56.9560         29
  56.9745         19
  56.9931         14
  57.0117         26
  57.0303         16
  57.0488         13
  57.0674         19
  57.0860         14
  57.1046         19
  57.1231         15
  57.1417         23
  57.1603         15
  57.1789         15
  57.1974         17
  57.2160         16
  57.2346         17
  57.2532         19
  57.2717         24
  57.2903         23
  57.3089         16
  57.3275         19
  57.3460         25
  57.3646         27
  57.3832         16
  57.4018         19
  57.4203         19
  57.4389         25
  57.4575         29
  57.4761         19
  57.4946         24
  57.5132         21
  57.5318         23
  57.5504         18
  57.5689         24
  57.5875         21
  57.6061         16
  57.6247         17
  57.6433         17
  57.6618         25
  57.6804         22
  57.6990         21
  57.7176         35
  57.7361         27
  57.7547         16
  57.7733         19
  57.7919         20
  57.8104         18
  57.8290         24
  57.8476         21
  57.8662         25
  57.8847         16
  57.9033         22
  57.9219         20
  57.9405         17
  57.9590         11
  57.9776         13
  57.9962         18
  58.0148         22
  58.0333         16
  58.0519         21
  58.0705         22
  58.0891         20
  58.1076         22
  58.1262         19
  58.1448         16
  58.1634         17
  58.1819         18
  58.2005         15
  58.2191         15
  58.2377         21
  58.2562         24
  58.2748         20
  58.2934         22
  58.3120         19
  58.3305         16
  58.3491         23
  58.3677         16
  58.3863         24
  58.4049         13
  58.4234         13
  58.4420         22
  58.4606         13
  58.4792         25
  58.4977         21
  58.5163         21
  58.5349         16
  58.5535         27
  58.5720         12
  58.5906         31
  58.6092         19
  58.6278         26
  58.6463         16
  58.6649         20
  58.6835         22
  58.7021         21
  58.7206         24
  58.7392         30
  58.7578         31
  58.7764         20
  58.7949         29
  58.8135         23
  58.8321         22
  58.8507         21
  58.8692         21
  58.8878         17
  58.9064         28
  58.9250         15
  58.9435         31
  58.9621         19
  58.9807         19
  58.9993         26
  59.0178         15
  59.0364         21
  59.0550         19
  59.0736         29
  59.0921         15
  59.1107         21
  59.1293         20
  59.1479         21
  59.1664         34
  59.1850         22
  59.2036         17
  59.2222         17
  59.2408         18
  59.2593         21
  59.2779         18
  59.2965         25
  59.3151         19
  59.3336         27
  59.3522         16
  59.3708         20
  59.3894         21
  59.4079         25
  59.4265         21
  59.4451         28
  59.4637         12
  59.4822         23
  59.5008         22
  59.5194         26
  59.5380         22
  59.5565         14
  59.5751         26
  59.5937         12
  59.6123         13
  59.6308         23
  59.6494         22
  59.6680         21
  59.6866         26
  59.7051         16
  59.7237         30
  59.7423         30
  59.7609         29
  59.7794         22
  59.7980         22
  59.8166         20
  59.8352         18
  59.8537         22
  59.8723         22
  59.8909         12
  59.9095         20
  59.9280         12
  59.9466         26
  59.9652         11
  59.9838         14
  60.0024         17
