; (content of file Y:\Sam\Apurva-07-20-2022\puck4\ML_20220718_29_SJD_0_LaB6-2min.raw)
_FILEVERSION = 3
_SAMPLE = ML_20220718_29_SJD_0_LaB6-2min
_+SAMPLE = 
_SITE = USA
_USER = Administrator
_GONIOMETER_CODE = 20
; Goniometer : D8 theta/2theta, stage : Unknown
_ATTACHMENTS_CODE = 0
_GONIOMETER_RADIUS = 200.5
_FIXED_DIVSLIT = 0.6
_FIXED_SAMPLESLIT = 0
_SOLLER_SLITS = 2
_FIXED_DETSLIT = 9.55
_MONOCHROMATOR = 0
; Incident beam monochromator : None
_SOLLER_SLITS_2 = N
_THIN_FILM = N
_BETA_FILTER = Y
_FIXED_ANTISLIT = 5.89
_ANALYZER_CODE = 0
; Received beam analyzer : None
_DATEMEASURED = "26-Jul-2022 09:16:00"
_WL_UNIT = A
_WL1 = 1.5406
_WL2 = 1.54439
_WL3 = 1.39222
_WLRATIO = 0.5
_ANODE = Cu
_V4_INF_CREATOR = XRDWizard
_V4_INF_CREATOR_VERSION = V2.9.0.22
_V4_INF_WIZARD_VERSION = V2.9.0.22
_V4_INF_WIZARD_ADDINS = V2.9.0.22
_V4_INF_WIZARD_DOCTYPE = XRD
_V4_INF_OSUSER = McQueenLab
_V4_INF_USER = Administrator
_V4_INF_SITE = USA
_V4_INF_SAMPLEID = ML_20220718_29_SJD_0_LaB6-2min

; Data for range 1
_DRIVE = COUPLED
_STEPTIME = 5.64
_STEPSIZE = 0.0185756
_STEPMODE = C
_START = 5
_THETA = 2.5
_2THETA = 5
_KHI = 0
_PHI = 0
_X = 0
_Y = 0
_Z = 0
_DETECTOR = 5
; Detector type : Unknown
_DETECTORSLIT = unkn
_AUX1 = 0
_AUX2 = 0
_AUX3 = 0
_TIMESTARTED = 14
_TEMP_RATE = -1
_TEMP_DELAY = -1
_KV = 40
_MA = 40
_RANGE_WL = 1.5406
_3DPLANE = 0
_V4_ADDITIONALDETECTOR = 257
_V4_PSD2THETA = 3.4232
_V4_PSDCHANNEL1 = 0
_V4_PSDAPERTURE = 12.68
_V4_PSDTYPE = 5
_V4_PSDFIXED = 0
_V4_COUNTERS_MASK = 4096
_V4_DRIVES_MASK = 0
_V4_ENCODERS_MASK = 0
_2THETACOUNTS = 1
; 2THETA  PSD
   5.0000        141
   5.0186        140
   5.0372        146
   5.0557        136
   5.0743        143
   5.0929        151
   5.1115        118
   5.1300        115
   5.1486        126
   5.1672        108
   5.1858        122
   5.2043        118
   5.2229        122
   5.2415        116
   5.2601        124
   5.2786        126
   5.2972        137
   5.3158        119
   5.3344        103
   5.3529        137
   5.3715        131
   5.3901        113
   5.4087        111
   5.4272        126
   5.4458        128
   5.4644        110
   5.4830        112
   5.5015        103
   5.5201        114
   5.5387        106
   5.5573        100
   5.5758        101
   5.5944        106
   5.6130         99
   5.6316        107
   5.6501         75
   5.6687        102
   5.6873        106
   5.7059        115
   5.7244        111
   5.7430        115
   5.7616         98
   5.7802         99
   5.7988        109
   5.8173         91
   5.8359        115
   5.8545        117
   5.8731        113
   5.8916        102
   5.9102         99
   5.9288        117
   5.9474         92
   5.9659        126
   5.9845         98
   6.0031        103
   6.0217        100
   6.0402         86
   6.0588        101
   6.0774        123
   6.0960         95
   6.1145        111
   6.1331         92
   6.1517        105
   6.1703         98
   6.1888         97
   6.2074         78
   6.2260         97
   6.2446         91
   6.2631         93
   6.2817        104
   6.3003        105
   6.3189         87
   6.3374         79
   6.3560         91
   6.3746         90
   6.3932         92
   6.4117         89
   6.4303         89
   6.4489        116
   6.4675         94
   6.4860         86
   6.5046         74
   6.5232         85
   6.5418         76
   6.5604        117
   6.5789         82
   6.5975         85
   6.6161        116
   6.6347         82
   6.6532         94
   6.6718         87
   6.6904         88
   6.7090        100
   6.7275         79
   6.7461         65
   6.7647         84
   6.7833         77
   6.8018         76
   6.8204         89
   6.8390         86
   6.8576         67
   6.8761        102
   6.8947         83
   6.9133         80
   6.9319         90
   6.9504         63
   6.9690         78
   6.9876         84
   7.0062         90
   7.0247         77
   7.0433         94
   7.0619         93
   7.0805         94
   7.0990         77
   7.1176         60
   7.1362         69
   7.1548         78
   7.1733         90
   7.1919         82
   7.2105         91
   7.2291         69
   7.2476         87
   7.2662         81
   7.2848         79
   7.3034         72
   7.3220         68
   7.3405         89
   7.3591         79
   7.3777         75
   7.3963         73
   7.4148         93
   7.4334         87
   7.4520         80
   7.4706         86
   7.4891         81
   7.5077        103
   7.5263         68
   7.5449         79
   7.5634         87
   7.5820         62
   7.6006         90
   7.6192         87
   7.6377         78
   7.6563         89
   7.6749         67
   7.6935         95
   7.7120        110
   7.7306         86
   7.7492         93
   7.7678         85
   7.7863        101
   7.8049         83
   7.8235         83
   7.8421        101
   7.8606         99
   7.8792         92
   7.8978         92
   7.9164         85
   7.9349         96
   7.9535         82
   7.9721        102
   7.9907        107
   8.0092         88
   8.0278         97
   8.0464         92
   8.0650         92
   8.0835         78
   8.1021         91
   8.1207         82
   8.1393         84
   8.1579         97
   8.1764         84
   8.1950         96
   8.2136         84
   8.2322         91
   8.2507         84
   8.2693         89
   8.2879         96
   8.3065        100
   8.3250         85
   8.3436         99
   8.3622        102
   8.3808        100
   8.3993        107
   8.4179        101
   8.4365        105
   8.4551         91
   8.4736         94
   8.4922         80
   8.5108         91
   8.5294        103
   8.5479        106
   8.5665         94
   8.5851         90
   8.6037         85
   8.6222        104
   8.6408         91
   8.6594        112
   8.6780        110
   8.6965         83
   8.7151        121
   8.7337        100
   8.7523        102
   8.7708         93
   8.7894         97
   8.8080        112
   8.8266        110
   8.8451         88
   8.8637        127
   8.8823         91
   8.9009        120
   8.9195         87
   8.9380        121
   8.9566        136
   8.9752         94
   8.9938        125
   9.0123        115
   9.0309         93
   9.0495        121
   9.0681        128
   9.0866        125
   9.1052         92
   9.1238        122
   9.1424        106
   9.1609        103
   9.1795         88
   9.1981        101
   9.2167         99
   9.2352        102
   9.2538        102
   9.2724        114
   9.2910         99
   9.3095        113
   9.3281        111
   9.3467        114
   9.3653        119
   9.3838        100
   9.4024        102
   9.4210        105
   9.4396        106
   9.4581        125
   9.4767        129
   9.4953        107
   9.5139        110
   9.5324        136
   9.5510        118
   9.5696        101
   9.5882        108
   9.6067        105
   9.6253         99
   9.6439        119
   9.6625        102
   9.6811        106
   9.6996        110
   9.7182        101
   9.7368         96
   9.7554        106
   9.7739        100
   9.7925        117
   9.8111        120
   9.8297        114
   9.8482        107
   9.8668        108
   9.8854        116
   9.9040        118
   9.9225        121
   9.9411        110
   9.9597        120
   9.9783        123
   9.9968        125
  10.0154        116
  10.0340        140
  10.0526        129
  10.0711        116
  10.0897         94
  10.1083         92
  10.1269        110
  10.1454        119
  10.1640        118
  10.1826        110
  10.2012        116
  10.2197        107
  10.2383        135
  10.2569        108
  10.2755        128
  10.2940        111
  10.3126         98
  10.3312        121
  10.3498        129
  10.3683        114
  10.3869        115
  10.4055        116
  10.4241        142
  10.4427        110
  10.4612         99
  10.4798        102
  10.4984        139
  10.5170        118
  10.5355        109
  10.5541        115
  10.5727        116
  10.5913        108
  10.6098        117
  10.6284        108
  10.6470        119
  10.6656         93
  10.6841        113
  10.7027        135
  10.7213        102
  10.7399        122
  10.7584        108
  10.7770        105
  10.7956        110
  10.8142        108
  10.8327        123
  10.8513        140
  10.8699        126
  10.8885        116
  10.9070        119
  10.9256        133
  10.9442        121
  10.9628        109
  10.9813        121
  10.9999        123
  11.0185        130
  11.0371        127
  11.0556        121
  11.0742        118
  11.0928        112
  11.1114        105
  11.1299        115
  11.1485        104
  11.1671        105
  11.1857        139
  11.2043        135
  11.2228        130
  11.2414        119
  11.2600        125
  11.2786        109
  11.2971        120
  11.3157        128
  11.3343        124
  11.3529        125
  11.3714        116
  11.3900         84
  11.4086        131
  11.4272        135
  11.4457        114
  11.4643        107
  11.4829         99
  11.5015         93
  11.5200        120
  11.5386        130
  11.5572        108
  11.5758        113
  11.5943        119
  11.6129        119
  11.6315        123
  11.6501        105
  11.6686        121
  11.6872        101
  11.7058        101
  11.7244        113
  11.7429        102
  11.7615        100
  11.7801        125
  11.7987        103
  11.8172         95
  11.8358        110
  11.8544        107
  11.8730        107
  11.8915        134
  11.9101        132
  11.9287        100
  11.9473         98
  11.9659        108
  11.9844        106
  12.0030        120
  12.0216        120
  12.0402        115
  12.0587        123
  12.0773        122
  12.0959        115
  12.1145        105
  12.1330        105
  12.1516        103
  12.1702        101
  12.1888        117
  12.2073        110
  12.2259        111
  12.2445        128
  12.2631         99
  12.2816        114
  12.3002         97
  12.3188        105
  12.3374        126
  12.3559        119
  12.3745        132
  12.3931         89
  12.4117        114
  12.4302        110
  12.4488        101
  12.4674        100
  12.4860        108
  12.5045        116
  12.5231         99
  12.5417         96
  12.5603         99
  12.5788        105
  12.5974         94
  12.6160         89
  12.6346        106
  12.6531        111
  12.6717        104
  12.6903        115
  12.7089        107
  12.7274         96
  12.7460        107
  12.7646        101
  12.7832        104
  12.8018         96
  12.8203         86
  12.8389        111
  12.8575         87
  12.8761        106
  12.8946        104
  12.9132         88
  12.9318        109
  12.9504         95
  12.9689        119
  12.9875         93
  13.0061         83
  13.0247        113
  13.0432         93
  13.0618         96
  13.0804        128
  13.0990        108
  13.1175         98
  13.1361         75
  13.1547         94
  13.1733         92
  13.1918        111
  13.2104         98
  13.2290        102
  13.2476         87
  13.2661        103
  13.2847        102
  13.3033        100
  13.3219         99
  13.3404        113
  13.3590         98
  13.3776         97
  13.3962         87
  13.4147        106
  13.4333         94
  13.4519        114
  13.4705         93
  13.4890        110
  13.5076        106
  13.5262         83
  13.5448        103
  13.5634        104
  13.5819        101
  13.6005         94
  13.6191         84
  13.6377         80
  13.6562         96
  13.6748         74
  13.6934        113
  13.7120         91
  13.7305        104
  13.7491         88
  13.7677        107
  13.7863         87
  13.8048         80
  13.8234         77
  13.8420        112
  13.8606         89
  13.8791         88
  13.8977         91
  13.9163         85
  13.9349         90
  13.9534         92
  13.9720         72
  13.9906         97
  14.0092         82
  14.0277         90
  14.0463         93
  14.0649         88
  14.0835         87
  14.1020         89
  14.1206         76
  14.1392         85
  14.1578         92
  14.1763         98
  14.1949         81
  14.2135         97
  14.2321         91
  14.2506         93
  14.2692         77
  14.2878         72
  14.3064         79
  14.3250         96
  14.3435         97
  14.3621         90
  14.3807        108
  14.3993         89
  14.4178         75
  14.4364         89
  14.4550         79
  14.4736         91
  14.4921         86
  14.5107         80
  14.5293         72
  14.5479        100
  14.5664         59
  14.5850         75
  14.6036         79
  14.6222         91
  14.6407         79
  14.6593         71
  14.6779         79
  14.6965         67
  14.7150         90
  14.7336         84
  14.7522         88
  14.7708         73
  14.7893         95
  14.8079         85
  14.8265         87
  14.8451         89
  14.8636         92
  14.8822         92
  14.9008         71
  14.9194         89
  14.9379         60
  14.9565         75
  14.9751         75
  14.9937         88
  15.0122         73
  15.0308         82
  15.0494         85
  15.0680         76
  15.0866         78
  15.1051         85
  15.1237         74
  15.1423         78
  15.1609         79
  15.1794         89
  15.1980         71
  15.2166         84
  15.2352         82
  15.2537         73
  15.2723         88
  15.2909         84
  15.3095         89
  15.3280         88
  15.3466         88
  15.3652         80
  15.3838         92
  15.4023         85
  15.4209         72
  15.4395         70
  15.4581         76
  15.4766         81
  15.4952         93
  15.5138         80
  15.5324         64
  15.5509         97
  15.5695         84
  15.5881         92
  15.6067         74
  15.6252         79
  15.6438         85
  15.6624         80
  15.6810         85
  15.6995         80
  15.7181         79
  15.7367         80
  15.7553         93
  15.7738         77
  15.7924         94
  15.8110         69
  15.8296         93
  15.8482         97
  15.8667         83
  15.8853         92
  15.9039         75
  15.9225         78
  15.9410         69
  15.9596         89
  15.9782         83
  15.9968         89
  16.0153         76
  16.0339         73
  16.0525         82
  16.0711         80
  16.0896         89
  16.1082         79
  16.1268         84
  16.1454         88
  16.1639         78
  16.1825         85
  16.2011         80
  16.2197         87
  16.2382         76
  16.2568         85
  16.2754         98
  16.2940         91
  16.3125         66
  16.3311         80
  16.3497         87
  16.3683         85
  16.3868         76
  16.4054         79
  16.4240         76
  16.4426         77
  16.4611        100
  16.4797         77
  16.4983         92
  16.5169         87
  16.5354         67
  16.5540         92
  16.5726         78
  16.5912         86
  16.6097         82
  16.6283         67
  16.6469         86
  16.6655        103
  16.6841         69
  16.7026         80
  16.7212         95
  16.7398         97
  16.7584         75
  16.7769         73
  16.7955         91
  16.8141         73
  16.8327         87
  16.8512         76
  16.8698         61
  16.8884         86
  16.9070         66
  16.9255         81
  16.9441         68
  16.9627         75
  16.9813         81
  16.9998         87
  17.0184        100
  17.0370         71
  17.0556         79
  17.0741         80
  17.0927         75
  17.1113         67
  17.1299         70
  17.1484         85
  17.1670         88
  17.1856         85
  17.2042         93
  17.2227         88
  17.2413         84
  17.2599         82
  17.2785         87
  17.2970         72
  17.3156         88
  17.3342         73
  17.3528         59
  17.3713         69
  17.3899         93
  17.4085         92
  17.4271         82
  17.4457         91
  17.4642         88
  17.4828        102
  17.5014         82
  17.5200         86
  17.5385         90
  17.5571         75
  17.5757         87
  17.5943         69
  17.6128         82
  17.6314         91
  17.6500         70
  17.6686         91
  17.6871         76
  17.7057         73
  17.7243         97
  17.7429         76
  17.7614         88
  17.7800         64
  17.7986         74
  17.8172         76
  17.8357         79
  17.8543         82
  17.8729         79
  17.8915         83
  17.9100         67
  17.9286         84
  17.9472         94
  17.9658         80
  17.9843         63
  18.0029         73
  18.0215         76
  18.0401         80
  18.0586         88
  18.0772         94
  18.0958         80
  18.1144         80
  18.1329         87
  18.1515         84
  18.1701         65
  18.1887         74
  18.2073         71
  18.2258         81
  18.2444         95
  18.2630         77
  18.2816         85
  18.3001         78
  18.3187         79
  18.3373         84
  18.3559         86
  18.3744         92
  18.3930         83
  18.4116         76
  18.4302         68
  18.4487         73
  18.4673         75
  18.4859         83
  18.5045         67
  18.5230         77
  18.5416         83
  18.5602         92
  18.5788         88
  18.5973         89
  18.6159         90
  18.6345         92
  18.6531         75
  18.6716         85
  18.6902         91
  18.7088         89
  18.7274         88
  18.7459         96
  18.7645        106
  18.7831         80
  18.8017         85
  18.8202         74
  18.8388         70
  18.8574         75
  18.8760         87
  18.8945         91
  18.9131         89
  18.9317         54
  18.9503         82
  18.9689         80
  18.9874         90
  19.0060         70
  19.0246         96
  19.0432         74
  19.0617         60
  19.0803         74
  19.0989         78
  19.1175         89
  19.1360         87
  19.1546         72
  19.1732         77
  19.1918         87
  19.2103         90
  19.2289         97
  19.2475         64
  19.2661         87
  19.2846         95
  19.3032         79
  19.3218         85
  19.3404         90
  19.3589        104
  19.3775         89
  19.3961         80
  19.4147         82
  19.4332         87
  19.4518         74
  19.4704         91
  19.4890         94
  19.5075         78
  19.5261         83
  19.5447         92
  19.5633         93
  19.5818         84
  19.6004        101
  19.6190         80
  19.6376         88
  19.6561         85
  19.6747         77
  19.6933         73
  19.7119         81
  19.7305         85
  19.7490        102
  19.7676         96
  19.7862         87
  19.8048         97
  19.8233        107
  19.8419         92
  19.8605         93
  19.8791        101
  19.8976        101
  19.9162         60
  19.9348         96
  19.9534         93
  19.9719         73
  19.9905         83
  20.0091         87
  20.0277         80
  20.0462         84
  20.0648         81
  20.0834         96
  20.1020         77
  20.1205         83
  20.1391         89
  20.1577         82
  20.1763         87
  20.1948         92
  20.2134         93
  20.2320         88
  20.2506         76
  20.2691         78
  20.2877         80
  20.3063         81
  20.3249         95
  20.3434         98
  20.3620         97
  20.3806        105
  20.3992         83
  20.4177         87
  20.4363         98
  20.4549         94
  20.4735        100
  20.4921        105
  20.5106         82
  20.5292         81
  20.5478         96
  20.5664         87
  20.5849         91
  20.6035         66
  20.6221         85
  20.6407         94
  20.6592        113
  20.6778         86
  20.6964         90
  20.7150         99
  20.7335         90
  20.7521         90
  20.7707         98
  20.7893         94
  20.8078         90
  20.8264         90
  20.8450         86
  20.8636        122
  20.8821         80
  20.9007         87
  20.9193        109
  20.9379        104
  20.9564         94
  20.9750        113
  20.9936        108
  21.0122         88
  21.0307        124
  21.0493        104
  21.0679         97
  21.0865        105
  21.1050        101
  21.1236         93
  21.1422        103
  21.1608        104
  21.1793        134
  21.1979        118
  21.2165        165
  21.2351        170
  21.2537        159
  21.2722        168
  21.2908        157
  21.3094        152
  21.3280        209
  21.3465        248
  21.3651        246
  21.3837        188
  21.4023        186
  21.4208        166
  21.4394        127
  21.4580        126
  21.4766        108
  21.4951        129
  21.5137         98
  21.5323         79
  21.5509        101
  21.5694         86
  21.5880         97
  21.6066         90
  21.6252        106
  21.6437        101
  21.6623         84
  21.6809        106
  21.6995         81
  21.7180        102
  21.7366         94
  21.7552         90
  21.7738         91
  21.7923         98
  21.8109         93
  21.8295        100
  21.8481         85
  21.8666         88
  21.8852         91
  21.9038        109
  21.9224         98
  21.9409         94
  21.9595         77
  21.9781         88
  21.9967        111
  22.0152         97
  22.0338         94
  22.0524        108
  22.0710        100
  22.0896        105
  22.1081        100
  22.1267        107
  22.1453         93
  22.1639         96
  22.1824         93
  22.2010         85
  22.2196         95
  22.2382        102
  22.2567         81
  22.2753        107
  22.2939        101
  22.3125         83
  22.3310        108
  22.3496         77
  22.3682         87
  22.3868         93
  22.4053         93
  22.4239         96
  22.4425         88
  22.4611        110
  22.4796         90
  22.4982        115
  22.5168        105
  22.5354         97
  22.5539         90
  22.5725         80
  22.5911         98
  22.6097         95
  22.6282         84
  22.6468         93
  22.6654        111
  22.6840         94
  22.7025         90
  22.7211         95
  22.7397        106
  22.7583         78
  22.7768        100
  22.7954         98
  22.8140        108
  22.8326         92
  22.8512         98
  22.8697        100
  22.8883         91
  22.9069         92
  22.9255         79
  22.9440         91
  22.9626        104
  22.9812        109
  22.9998         93
  23.0183         97
  23.0369         88
  23.0555        109
  23.0741         88
  23.0926         89
  23.1112         84
  23.1298        110
  23.1484         97
  23.1669         85
  23.1855         93
  23.2041         92
  23.2227         93
  23.2412        101
  23.2598        106
  23.2784         85
  23.2970         90
  23.3155        107
  23.3341         96
  23.3527         92
  23.3713         84
  23.3898        101
  23.4084         96
  23.4270         73
  23.4456         98
  23.4641         89
  23.4827         86
  23.5013        116
  23.5199         88
  23.5384        100
  23.5570         89
  23.5756         99
  23.5942         99
  23.6128        100
  23.6313         99
  23.6499        115
  23.6685         94
  23.6871        105
  23.7056         98
  23.7242        102
  23.7428        104
  23.7614         98
  23.7799        105
  23.7985         98
  23.8171        100
  23.8357        101
  23.8542         98
  23.8728         92
  23.8914        110
  23.9100        101
  23.9285         91
  23.9471        113
  23.9657         92
  23.9843         93
  24.0028        110
  24.0214        115
  24.0400        113
  24.0586         80
  24.0771        101
  24.0957         94
  24.1143         90
  24.1329        109
  24.1514        112
  24.1700         97
  24.1886        107
  24.2072         91
  24.2257        106
  24.2443        106
  24.2629        126
  24.2815        113
  24.3000        110
  24.3186        120
  24.3372        110
  24.3558        119
  24.3744         98
  24.3929        110
  24.4115         94
  24.4301        108
  24.4487         98
  24.4672         92
  24.4858        108
  24.5044         94
  24.5230        120
  24.5415        104
  24.5601        103
  24.5787        111
  24.5973         91
  24.6158         93
  24.6344        107
  24.6530         83
  24.6716         96
  24.6901         96
  24.7087         98
  24.7273        102
  24.7459         99
  24.7644         95
  24.7830        102
  24.8016         93
  24.8202        106
  24.8387         92
  24.8573         85
  24.8759        100
  24.8945         88
  24.9130        100
  24.9316         91
  24.9502        103
  24.9688         96
  24.9873         96
  25.0059         96
  25.0245         78
  25.0431        123
  25.0616         91
  25.0802        105
  25.0988        101
  25.1174        105
  25.1360         90
  25.1545         98
  25.1731         88
  25.1917         98
  25.2103         93
  25.2288         90
  25.2474         98
  25.2660        109
  25.2846         98
  25.3031         99
  25.3217        107
  25.3403        107
  25.3589         99
  25.3774         95
  25.3960         96
  25.4146        100
  25.4332         90
  25.4517         79
  25.4703        107
  25.4889        101
  25.5075        108
  25.5260        101
  25.5446         96
  25.5632         90
  25.5818         76
  25.6003         91
  25.6189         96
  25.6375         89
  25.6561        103
  25.6746        105
  25.6932         80
  25.7118        110
  25.7304         99
  25.7489         97
  25.7675         93
  25.7861         89
  25.8047         95
  25.8232         77
  25.8418         96
  25.8604         95
  25.8790         84
  25.8976        102
  25.9161         94
  25.9347         94
  25.9533        100
  25.9719        106
  25.9904        108
  26.0090         88
  26.0276        103
  26.0462         93
  26.0647         93
  26.0833        107
  26.1019        100
  26.1205         85
  26.1390         91
  26.1576         83
  26.1762        100
  26.1948         94
  26.2133         86
  26.2319         95
  26.2505         98
  26.2691         98
  26.2876         85
  26.3062        101
  26.3248        113
  26.3434        115
  26.3619         81
  26.3805        102
  26.3991        100
  26.4177         95
  26.4362         97
  26.4548         93
  26.4734         90
  26.4920        112
  26.5105         78
  26.5291         96
  26.5477        100
  26.5663         83
  26.5848         88
  26.6034         99
  26.6220         88
  26.6406         86
  26.6591         91
  26.6777         83
  26.6963        107
  26.7149         79
  26.7335         99
  26.7520         93
  26.7706         90
  26.7892         92
  26.8078         79
  26.8263         83
  26.8449         93
  26.8635        102
  26.8821         82
  26.9006         92
  26.9192         92
  26.9378        103
  26.9564         93
  26.9749         71
  26.9935         85
  27.0121         98
  27.0307        102
  27.0492         87
  27.0678         98
  27.0864         84
  27.1050         84
  27.1235        107
  27.1421         89
  27.1607        113
  27.1793        115
  27.1978        130
  27.2164        124
  27.2350        106
  27.2536        117
  27.2721         98
  27.2907        107
  27.3093         97
  27.3279         91
  27.3464         87
  27.3650         95
  27.3836         78
  27.4022         79
  27.4207         93
  27.4393         95
  27.4579         96
  27.4765         93
  27.4951         84
  27.5136        112
  27.5322         79
  27.5508         95
  27.5694         88
  27.5879         93
  27.6065         91
  27.6251         97
  27.6437         86
  27.6622         96
  27.6808         70
  27.6994         83
  27.7180         93
  27.7365         88
  27.7551         74
  27.7737        100
  27.7923         81
  27.8108         79
  27.8294         79
  27.8480         81
  27.8666         74
  27.8851        106
  27.9037         72
  27.9223         84
  27.9409         73
  27.9594         90
  27.9780         91
  27.9966         79
  28.0152         78
  28.0337        109
  28.0523         82
  28.0709         92
  28.0895         83
  28.1080         81
  28.1266         84
  28.1452         85
  28.1638         75
  28.1823         82
  28.2009         95
  28.2195         78
  28.2381         94
  28.2567         86
  28.2752         83
  28.2938         81
  28.3124         77
  28.3310         98
  28.3495         85
  28.3681         84
  28.3867         75
  28.4053         86
  28.4238         80
  28.4424         87
  28.4610         99
  28.4796         78
  28.4981         75
  28.5167         85
  28.5353         83
  28.5539         80
  28.5724        101
  28.5910         77
  28.6096         73
  28.6282         83
  28.6467         76
  28.6653         73
  28.6839         82
  28.7025         91
  28.7210         79
  28.7396         83
  28.7582         84
  28.7768         85
  28.7953         62
  28.8139         83
  28.8325         78
  28.8511         85
  28.8696         79
  28.8882         78
  28.9068         96
  28.9254         85
  28.9439         72
  28.9625         89
  28.9811         74
  28.9997         73
  29.0183         71
  29.0368         88
  29.0554         82
  29.0740         78
  29.0926         81
  29.1111         76
  29.1297         81
  29.1483         80
  29.1669         84
  29.1854         81
  29.2040         70
  29.2226        100
  29.2412         70
  29.2597         85
  29.2783         71
  29.2969        100
  29.3155         86
  29.3340         88
  29.3526         68
  29.3712         85
  29.3898         83
  29.4083         81
  29.4269         81
  29.4455         80
  29.4641         87
  29.4826         71
  29.5012         86
  29.5198         97
  29.5384         70
  29.5569         73
  29.5755         77
  29.5941         76
  29.6127         87
  29.6312        100
  29.6498         71
  29.6684         81
  29.6870         79
  29.7055         80
  29.7241         84
  29.7427         86
  29.7613         82
  29.7799         81
  29.7984         79
  29.8170         80
  29.8356         68
  29.8542         79
  29.8727         83
  29.8913         71
  29.9099         66
  29.9285         89
  29.9470         62
  29.9656         74
  29.9842         73
  30.0028         85
  30.0213         58
  30.0399         84
  30.0585         80
  30.0771         84
  30.0956         77
  30.1142         74
  30.1328         82
  30.1514         94
  30.1699         60
  30.1885         89
  30.2071         77
  30.2257         83
  30.2442         68
  30.2628         76
  30.2814         73
  30.3000         87
  30.3185         80
  30.3371         98
  30.3557        130
  30.3743        172
  30.3928        170
  30.4114        132
  30.4300        118
  30.4486        123
  30.4671        101
  30.4857         90
  30.5043         67
  30.5229         82
  30.5415         76
  30.5600         93
  30.5786         81
  30.5972         70
  30.6158         89
  30.6343         69
  30.6529         74
  30.6715         76
  30.6901         70
  30.7086         77
  30.7272         84
  30.7458         77
  30.7644         65
  30.7829         66
  30.8015         63
  30.8201         83
  30.8387         71
  30.8572         67
  30.8758         69
  30.8944         62
  30.9130         64
  30.9315         65
  30.9501         76
  30.9687         75
  30.9873         82
  31.0058         71
  31.0244         79
  31.0430         82
  31.0616         77
  31.0801         75
  31.0987         69
  31.1173         80
  31.1359         64
  31.1544         68
  31.1730         58
  31.1916         53
  31.2102         69
  31.2287         63
  31.2473         74
  31.2659         73
  31.2845         61
  31.3030         87
  31.3216         86
  31.3402         71
  31.3588         73
  31.3774         75
  31.3959         65
  31.4145         75
  31.4331         69
  31.4517         74
  31.4702         56
  31.4888         66
  31.5074         60
  31.5260         70
  31.5445         65
  31.5631         80
  31.5817         66
  31.6003         70
  31.6188         55
  31.6374         76
  31.6560         70
  31.6746         60
  31.6931         59
  31.7117         64
  31.7303         62
  31.7489         59
  31.7674         70
  31.7860         68
  31.8046         59
  31.8232         54
  31.8417         68
  31.8603         62
  31.8789         78
  31.8975         60
  31.9160         55
  31.9346         76
  31.9532         50
  31.9718         49
  31.9903         56
  32.0089         63
  32.0275         67
  32.0461         66
  32.0646         65
  32.0832         76
  32.1018         51
  32.1204         66
  32.1390         59
  32.1575         66
  32.1761         60
  32.1947         69
  32.2133         72
  32.2318         59
  32.2504         64
  32.2690         82
  32.2876         63
  32.3061         60
  32.3247         61
  32.3433         77
  32.3619         58
  32.3804         75
  32.3990         72
  32.4176         61
  32.4362         67
  32.4547         75
  32.4733         77
  32.4919         86
  32.5105         53
  32.5290         72
  32.5476         84
  32.5662         80
  32.5848         69
  32.6033         65
  32.6219         71
  32.6405         55
  32.6591         66
  32.6776         69
  32.6962         60
  32.7148         60
  32.7334         66
  32.7519         75
  32.7705         67
  32.7891         67
  32.8077         70
  32.8262         57
  32.8448         58
  32.8634         67
  32.8820         68
  32.9006         74
  32.9191         55
  32.9377         63
  32.9563         53
  32.9749         66
  32.9934         59
  33.0120         54
  33.0306         55
  33.0492         61
  33.0677         50
  33.0863         62
  33.1049         71
  33.1235         64
  33.1420         50
  33.1606         67
  33.1792         49
  33.1978         58
  33.2163         48
  33.2349         53
  33.2535         72
  33.2721         60
  33.2906         55
  33.3092         67
  33.3278         62
  33.3464         67
  33.3649         70
  33.3835         47
  33.4021         57
  33.4207         65
  33.4392         67
  33.4578         60
  33.4764         64
  33.4950         56
  33.5135         64
  33.5321         72
  33.5507         63
  33.5693         51
  33.5878         45
  33.6064         58
  33.6250         49
  33.6436         64
  33.6622         65
  33.6807         58
  33.6993         61
  33.7179         56
  33.7365         54
  33.7550         55
  33.7736         55
  33.7922         61
  33.8108         57
  33.8293         48
  33.8479         59
  33.8665         64
  33.8851         61
  33.9036         60
  33.9222         49
  33.9408         45
  33.9594         60
  33.9779         51
  33.9965         68
  34.0151         62
  34.0337         47
  34.0522         80
  34.0708         51
  34.0894         60
  34.1080         53
  34.1265         51
  34.1451         63
  34.1637         59
  34.1823         63
  34.2008         56
  34.2194         61
  34.2380         67
  34.2566         45
  34.2751         68
  34.2937         52
  34.3123         58
  34.3309         50
  34.3494         53
  34.3680         65
  34.3866         54
  34.4052         60
  34.4238         62
  34.4423         60
  34.4609         52
  34.4795         63
  34.4981         56
  34.5166         64
  34.5352         43
  34.5538         46
  34.5724         62
  34.5909         78
  34.6095         44
  34.6281         67
  34.6467         71
  34.6652         78
  34.6838         58
  34.7024         62
  34.7210         66
  34.7395         78
  34.7581         90
  34.7767         97
  34.7953         87
  34.8138         57
  34.8324         61
  34.8510         63
  34.8696         63
  34.8881         71
  34.9067         52
  34.9253         72
  34.9439         56
  34.9624         53
  34.9810         51
  34.9996         62
  35.0182         68
  35.0367         53
  35.0553         49
  35.0739         58
  35.0925         54
  35.1110         55
  35.1296         56
  35.1482         59
  35.1668         45
  35.1854         45
  35.2039         58
  35.2225         61
  35.2411         48
  35.2597         58
  35.2782         53
  35.2968         59
  35.3154         47
  35.3340         44
  35.3525         53
  35.3711         50
  35.3897         58
  35.4083         49
  35.4268         59
  35.4454         46
  35.4640         48
  35.4826         50
  35.5011         47
  35.5197         54
  35.5383         57
  35.5569         46
  35.5754         52
  35.5940         47
  35.6126         43
  35.6312         48
  35.6497         40
  35.6683         59
  35.6869         53
  35.7055         39
  35.7240         55
  35.7426         41
  35.7612         39
  35.7798         53
  35.7983         42
  35.8169         45
  35.8355         45
  35.8541         44
  35.8726         41
  35.8912         52
  35.9098         55
  35.9284         46
  35.9469         35
  35.9655         34
  35.9841         49
  36.0027         46
  36.0213         54
  36.0398         41
  36.0584         42
  36.0770         43
  36.0956         49
  36.1141         46
  36.1327         49
  36.1513         49
  36.1699         53
  36.1884         47
  36.2070         45
  36.2256         39
  36.2442         44
  36.2627         34
  36.2813         41
  36.2999         48
  36.3185         50
  36.3370         52
  36.3556         46
  36.3742         48
  36.3928         57
  36.4113         55
  36.4299         45
  36.4485         62
  36.4671         53
  36.4856         45
  36.5042         38
  36.5228         36
  36.5414         50
  36.5599         49
  36.5785         48
  36.5971         47
  36.6157         40
  36.6342         43
  36.6528         39
  36.6714         53
  36.6900         48
  36.7085         49
  36.7271         46
  36.7457         42
  36.7643         51
  36.7829         56
  36.8014         48
  36.8200         38
  36.8386         45
  36.8572         38
  36.8757         50
  36.8943         47
  36.9129         43
  36.9315         59
  36.9500         60
  36.9686         38
  36.9872         38
  37.0058         53
  37.0243         46
  37.0429         43
  37.0615         47
  37.0801         44
  37.0986         51
  37.1172         42
  37.1358         38
  37.1544         37
  37.1729         46
  37.1915         50
  37.2101         35
  37.2287         42
  37.2472         44
  37.2658         48
  37.2844         37
  37.3030         33
  37.3215         40
  37.3401         48
  37.3587         45
  37.3773         45
  37.3958         46
  37.4144         48
  37.4330         73
  37.4516         73
  37.4701         61
  37.4887         50
  37.5073         58
  37.5259         57
  37.5445         66
  37.5630         67
  37.5816         64
  37.6002         45
  37.6188         40
  37.6373         50
  37.6559         37
  37.6745         44
  37.6931         50
  37.7116         53
  37.7302         48
  37.7488         33
  37.7674         38
  37.7859         38
  37.8045         33
  37.8231         43
  37.8417         43
  37.8602         47
  37.8788         37
  37.8974         45
  37.9160         50
  37.9345         47
  37.9531         40
  37.9717         42
  37.9903         39
  38.0088         40
  38.0274         43
  38.0460         59
  38.0646         48
  38.0831         55
  38.1017         38
  38.1203         36
  38.1389         29
  38.1574         41
  38.1760         43
  38.1946         36
  38.2132         45
  38.2317         44
  38.2503         34
  38.2689         42
  38.2875         41
  38.3061         51
  38.3246         47
  38.3432         41
  38.3618         36
  38.3804         53
  38.3989         40
  38.4175         43
  38.4361         40
  38.4547         39
  38.4732         37
  38.4918         30
  38.5104         39
  38.5290         36
  38.5475         42
  38.5661         54
  38.5847         40
  38.6033         39
  38.6218         33
  38.6404         34
  38.6590         43
  38.6776         41
  38.6961         40
  38.7147         37
  38.7333         33
  38.7519         43
  38.7704         44
  38.7890         31
  38.8076         34
  38.8262         54
  38.8447         54
  38.8633         42
  38.8819         36
  38.9005         45
  38.9190         41
  38.9376         43
  38.9562         49
  38.9748         45
  38.9933         49
  39.0119         40
  39.0305         48
  39.0491         43
  39.0677         31
  39.0862         35
  39.1048         44
  39.1234         44
  39.1420         38
  39.1605         30
  39.1791         33
  39.1977         42
  39.2163         39
  39.2348         41
  39.2534         40
  39.2720         32
  39.2906         34
  39.3091         41
  39.3277         34
  39.3463         26
  39.3649         40
  39.3834         37
  39.4020         41
  39.4206         41
  39.4392         41
  39.4577         50
  39.4763         28
  39.4949         42
  39.5135         38
  39.5320         45
  39.5506         39
  39.5692         43
  39.5878         40
  39.6063         41
  39.6249         30
  39.6435         46
  39.6621         41
  39.6806         48
  39.6992         33
  39.7178         43
  39.7364         32
  39.7549         52
  39.7735         34
  39.7921         31
  39.8107         42
  39.8293         37
  39.8478         32
  39.8664         42
  39.8850         47
  39.9036         36
  39.9221         42
  39.9407         44
  39.9593         45
  39.9779         44
  39.9964         40
  40.0150         41
  40.0336         29
  40.0522         30
  40.0707         30
  40.0893         29
  40.1079         28
  40.1265         23
  40.1450         43
  40.1636         41
  40.1822         27
  40.2008         27
  40.2193         30
  40.2379         31
  40.2565         39
  40.2751         33
  40.2936         39
  40.3122         34
  40.3308         45
  40.3494         33
  40.3679         28
  40.3865         52
  40.4051         41
  40.4237         44
  40.4422         40
  40.4608         43
  40.4794         38
  40.4980         46
  40.5165         41
  40.5351         61
  40.5537         41
  40.5723         33
  40.5908         42
  40.6094         33
  40.6280         43
  40.6466         41
  40.6652         41
  40.6837         41
  40.7023         40
  40.7209         34
  40.7395         31
  40.7580         29
  40.7766         37
  40.7952         34
  40.8138         44
  40.8323         45
  40.8509         54
  40.8695         34
  40.8881         40
  40.9066         37
  40.9252         39
  40.9438         32
  40.9624         29
  40.9809         45
  40.9995         45
  41.0181         42
  41.0367         37
  41.0552         38
  41.0738         41
  41.0924         47
  41.1110         39
  41.1295         31
  41.1481         42
  41.1667         48
  41.1853         37
  41.2038         34
  41.2224         37
  41.2410         30
  41.2596         31
  41.2781         36
  41.2967         35
  41.3153         40
  41.3339         39
  41.3524         41
  41.3710         39
  41.3896         40
  41.4082         38
  41.4268         29
  41.4453         37
  41.4639         34
  41.4825         43
  41.5011         37
  41.5196         40
  41.5382         40
  41.5568         33
  41.5754         46
  41.5939         47
  41.6125         35
  41.6311         32
  41.6497         27
  41.6682         32
  41.6868         40
  41.7054         31
  41.7240         32
  41.7425         31
  41.7611         43
  41.7797         44
  41.7983         38
  41.8168         41
  41.8354         32
  41.8540         37
  41.8726         35
  41.8911         38
  41.9097         41
  41.9283         34
  41.9469         36
  41.9654         39
  41.9840         42
  42.0026         26
  42.0212         42
  42.0397         32
  42.0583         40
  42.0769         30
  42.0955         43
  42.1140         31
  42.1326         35
  42.1512         33
  42.1698         22
  42.1884         35
  42.2069         39
  42.2255         34
  42.2441         43
  42.2627         31
  42.2812         34
  42.2998         42
  42.3184         32
  42.3370         38
  42.3555         38
  42.3741         30
  42.3927         39
  42.4113         30
  42.4298         43
  42.4484         36
  42.4670         33
  42.4856         29
  42.5041         35
  42.5227         36
  42.5413         26
  42.5599         41
  42.5784         43
  42.5970         27
  42.6156         30
  42.6342         29
  42.6527         45
  42.6713         43
  42.6899         23
  42.7085         40
  42.7270         35
  42.7456         39
  42.7642         35
  42.7828         40
  42.8013         39
  42.8199         41
  42.8385         40
  42.8571         44
  42.8756         30
  42.8942         53
  42.9128         48
  42.9314         38
  42.9500         36
  42.9685         35
  42.9871         31
  43.0057         42
  43.0243         50
  43.0428         38
  43.0614         30
  43.0800         27
  43.0986         39
  43.1171         37
  43.1357         39
  43.1543         32
  43.1729         35
  43.1914         37
  43.2100         38
  43.2286         44
  43.2472         42
  43.2657         47
  43.2843         58
  43.3029         48
  43.3215         34
  43.3400         37
  43.3586         30
  43.3772         50
  43.3958         41
  43.4143         33
  43.4329         47
  43.4515         44
  43.4701         50
  43.4886         48
  43.5072         64
  43.5258         64
  43.5444         55
  43.5629         33
  43.5815         45
  43.6001         48
  43.6187         45
  43.6372         50
  43.6558         48
  43.6744         36
  43.6930         40
  43.7116         35
  43.7301         35
  43.7487         54
  43.7673         40
  43.7859         26
  43.8044         31
  43.8230         38
  43.8416         35
  43.8602         47
  43.8787         36
  43.8973         49
  43.9159         39
  43.9345         37
  43.9530         37
  43.9716         44
  43.9902         41
  44.0088         33
  44.0273         42
  44.0459         56
  44.0645         45
  44.0831         37
  44.1016         41
  44.1202         48
  44.1388         43
  44.1574         38
  44.1759         40
  44.1945         36
  44.2131         35
  44.2317         44
  44.2502         45
  44.2688         40
  44.2874         30
  44.3060         41
  44.3245         37
  44.3431         51
  44.3617         35
  44.3803         41
  44.3988         41
  44.4174         24
  44.4360         40
  44.4546         45
  44.4732         26
  44.4917         38
  44.5103         36
  44.5289         35
  44.5475         37
  44.5660         34
  44.5846         56
  44.6032         30
  44.6218         39
  44.6403         34
  44.6589         29
  44.6775         34
  44.6961         38
  44.7146         40
  44.7332         39
  44.7518         31
  44.7704         35
  44.7889         42
  44.8075         47
  44.8261         46
  44.8447         29
  44.8632         45
  44.8818         54
  44.9004         33
  44.9190         37
  44.9375         27
  44.9561         31
  44.9747         45
  44.9933         22
  45.0118         29
  45.0304         39
  45.0490         45
  45.0676         34
  45.0861         36
  45.1047         38
  45.1233         29
  45.1419         24
  45.1604         48
  45.1790         42
  45.1976         28
  45.2162         36
  45.2347         39
  45.2533         32
  45.2719         37
  45.2905         43
  45.3091         24
  45.3276         33
  45.3462         41
  45.3648         43
  45.3834         37
  45.4019         36
  45.4205         35
  45.4391         36
  45.4577         37
  45.4762         31
  45.4948         34
  45.5134         34
  45.5320         26
  45.5505         42
  45.5691         23
  45.5877         32
  45.6063         32
  45.6248         37
  45.6434         40
  45.6620         26
  45.6806         43
  45.6991         41
  45.7177         25
  45.7363         42
  45.7549         42
  45.7734         27
  45.7920         27
  45.8106         41
  45.8292         36
  45.8477         30
  45.8663         32
  45.8849         24
  45.9035         23
  45.9220         34
  45.9406         26
  45.9592         34
  45.9778         23
  45.9963         27
  46.0149         38
  46.0335         34
  46.0521         35
  46.0707         37
  46.0892         42
  46.1078         34
  46.1264         25
  46.1450         27
  46.1635         41
  46.1821         45
  46.2007         37
  46.2193         32
  46.2378         25
  46.2564         34
  46.2750         21
  46.2936         37
  46.3121         30
  46.3307         35
  46.3493         35
  46.3679         42
  46.3864         33
  46.4050         25
  46.4236         30
  46.4422         34
  46.4607         43
  46.4793         36
  46.4979         24
  46.5165         20
  46.5350         32
  46.5536         22
  46.5722         39
  46.5908         19
  46.6093         42
  46.6279         33
  46.6465         32
  46.6651         36
  46.6836         40
  46.7022         39
  46.7208         47
  46.7394         37
  46.7579         31
  46.7765         25
  46.7951         30
  46.8137         24
  46.8323         37
  46.8508         40
  46.8694         32
  46.8880         35
  46.9066         27
  46.9251         32
  46.9437         39
  46.9623         42
  46.9809         28
  46.9994         33
  47.0180         33
  47.0366         27
  47.0552         31
  47.0737         27
  47.0923         27
  47.1109         37
  47.1295         33
  47.1480         29
  47.1666         29
  47.1852         33
  47.2038         35
  47.2223         21
  47.2409         22
  47.2595         39
  47.2781         33
  47.2966         41
  47.3152         20
  47.3338         36
  47.3524         41
  47.3709         45
  47.3895         34
  47.4081         36
  47.4267         34
  47.4452         37
  47.4638         34
  47.4824         32
  47.5010         30
  47.5195         36
  47.5381         21
  47.5567         34
  47.5753         22
  47.5939         36
  47.6124         30
  47.6310         26
  47.6496         33
  47.6682         32
  47.6867         37
  47.7053         36
  47.7239         36
  47.7425         31
  47.7610         35
  47.7796         30
  47.7982         31
  47.8168         28
  47.8353         28
  47.8539         36
  47.8725         32
  47.8911         29
  47.9096         31
  47.9282         32
  47.9468         27
  47.9654         33
  47.9839         53
  48.0025         35
  48.0211         34
  48.0397         39
  48.0582         28
  48.0768         21
  48.0954         25
  48.1140         32
  48.1325         27
  48.1511         36
  48.1697         25
  48.1883         43
  48.2068         32
  48.2254         26
  48.2440         36
  48.2626         24
  48.2811         34
  48.2997         25
  48.3183         43
  48.3369         38
  48.3555         35
  48.3740         33
  48.3926         33
  48.4112         26
  48.4298         40
  48.4483         34
  48.4669         32
  48.4855         31
  48.5041         29
  48.5226         27
  48.5412         28
  48.5598         34
  48.5784         33
  48.5969         47
  48.6155         35
  48.6341         43
  48.6527         29
  48.6712         33
  48.6898         39
  48.7084         24
  48.7270         31
  48.7455         39
  48.7641         36
  48.7827         39
  48.8013         37
  48.8198         35
  48.8384         43
  48.8570         44
  48.8756         34
  48.8941         26
  48.9127         38
  48.9313         54
  48.9499         52
  48.9684         61
  48.9870         56
  49.0056         41
  49.0242         44
  49.0427         48
  49.0613         43
  49.0799         53
  49.0985         34
  49.1171         47
  49.1356         35
  49.1542         32
  49.1728         34
  49.1914         28
  49.2099         37
  49.2285         36
  49.2471         34
  49.2657         34
  49.2842         27
  49.3028         26
  49.3214         23
  49.3400         32
  49.3585         33
  49.3771         26
  49.3957         40
  49.4143         25
  49.4328         32
  49.4514         35
  49.4700         34
  49.4886         37
  49.5071         38
  49.5257         34
  49.5443         25
  49.5629         36
  49.5814         29
  49.6000         32
  49.6186         29
  49.6372         35
  49.6557         33
  49.6743         29
  49.6929         24
  49.7115         30
  49.7300         28
  49.7486         37
  49.7672         30
  49.7858         33
  49.8043         21
  49.8229         34
  49.8415         32
  49.8601         31
  49.8786         22
  49.8972         30
  49.9158         32
  49.9344         23
  49.9530         29
  49.9715         24
  49.9901         37
  50.0087         26
  50.0273         35
  50.0458         29
  50.0644         34
  50.0830         32
  50.1016         31
  50.1201         32
  50.1387         38
  50.1573         33
  50.1759         34
  50.1944         31
  50.2130         30
  50.2316         28
  50.2502         32
  50.2687         43
  50.2873         32
  50.3059         31
  50.3245         26
  50.3430         30
  50.3616         30
  50.3802         29
  50.3988         42
  50.4173         35
  50.4359         28
  50.4545         27
  50.4731         27
  50.4916         31
  50.5102         35
  50.5288         34
  50.5474         25
  50.5659         22
  50.5845         35
  50.6031         31
  50.6217         27
  50.6402         23
  50.6588         32
  50.6774         27
  50.6960         30
  50.7146         28
  50.7331         30
  50.7517         37
  50.7703         24
  50.7889         30
  50.8074         26
  50.8260         33
  50.8446         24
  50.8632         24
  50.8817         29
  50.9003         29
  50.9189         29
  50.9375         39
  50.9560         29
  50.9746         36
  50.9932         21
  51.0118         32
  51.0303         38
  51.0489         36
  51.0675         27
  51.0861         36
  51.1046         33
  51.1232         39
  51.1418         31
  51.1604         29
  51.1789         31
  51.1975         28
  51.2161         24
  51.2347         23
  51.2532         28
  51.2718         30
  51.2904         26
  51.3090         27
  51.3275         22
  51.3461         41
  51.3647         34
  51.3833         43
  51.4018         48
  51.4204         37
  51.4390         50
  51.4576         25
  51.4762         36
  51.4947         19
  51.5133         33
  51.5319         24
  51.5505         36
  51.5690         38
  51.5876         30
  51.6062         31
  51.6248         37
  51.6433         32
  51.6619         26
  51.6805         32
  51.6991         29
  51.7176         25
  51.7362         45
  51.7548         35
  51.7734         21
  51.7919         26
  51.8105         28
  51.8291         33
  51.8477         34
  51.8662         32
  51.8848         35
  51.9034         36
  51.9220         34
  51.9405         38
  51.9591         26
  51.9777         27
  51.9963         27
  52.0148         34
  52.0334         33
  52.0520         24
  52.0706         31
  52.0891         30
  52.1077         31
  52.1263         30
  52.1449         22
  52.1634         25
  52.1820         27
  52.2006         34
  52.2192         35
  52.2378         20
  52.2563         23
  52.2749         21
  52.2935         29
  52.3121         27
  52.3306         25
  52.3492         32
  52.3678         30
  52.3864         23
  52.4049         32
  52.4235         22
  52.4421         24
  52.4607         29
  52.4792         35
  52.4978         30
  52.5164         20
  52.5350         27
  52.5535         36
  52.5721         33
  52.5907         29
  52.6093         31
  52.6278         29
  52.6464         22
  52.6650         29
  52.6836         30
  52.7021         28
  52.7207         26
  52.7393         24
  52.7579         23
  52.7764         27
  52.7950         32
  52.8136         23
  52.8322         36
  52.8507         34
  52.8693         30
  52.8879         33
  52.9065         26
  52.9250         28
  52.9436         30
  52.9622         31
  52.9808         45
  52.9994         37
  53.0179         31
  53.0365         25
  53.0551         32
  53.0737         23
  53.0922         25
  53.1108         32
  53.1294         27
  53.1480         22
  53.1665         33
  53.1851         12
  53.2037         27
  53.2223         32
  53.2408         34
  53.2594         29
  53.2780         38
  53.2966         32
  53.3151         23
  53.3337         32
  53.3523         30
  53.3709         39
  53.3894         24
  53.4080         29
  53.4266         41
  53.4452         18
  53.4637         25
  53.4823         20
  53.5009         30
  53.5195         27
  53.5380         38
  53.5566         36
  53.5752         30
  53.5938         28
  53.6123         34
  53.6309         24
  53.6495         30
  53.6681         25
  53.6866         26
  53.7052         25
  53.7238         23
  53.7424         32
  53.7610         28
  53.7795         26
  53.7981         33
  53.8167         27
  53.8353         26
  53.8538         29
  53.8724         35
  53.8910         36
  53.9096         30
  53.9281         29
  53.9467         35
  53.9653         41
  53.9839         33
  54.0024         42
  54.0210         30
  54.0396         30
  54.0582         31
  54.0767         28
  54.0953         33
  54.1139         41
  54.1325         40
  54.1510         43
  54.1696         35
  54.1882         24
  54.2068         23
  54.2253         37
  54.2439         32
  54.2625         26
  54.2811         33
  54.2996         25
  54.3182         32
  54.3368         31
  54.3554         18
  54.3739         35
  54.3925         32
  54.4111         29
  54.4297         30
  54.4482         30
  54.4668         25
  54.4854         25
  54.5040         36
  54.5225         23
  54.5411         22
  54.5597         29
  54.5783         25
  54.5969         31
  54.6154         24
  54.6340         28
  54.6526         26
  54.6712         24
  54.6897         26
  54.7083         26
  54.7269         22
  54.7455         34
  54.7640         24
  54.7826         25
  54.8012         30
  54.8198         31
  54.8383         32
  54.8569         28
  54.8755         24
  54.8941         34
  54.9126         29
  54.9312         29
  54.9498         26
  54.9684         35
  54.9869         21
  55.0055         38
  55.0241         28
  55.0427         27
  55.0612         35
  55.0798         14
  55.0984         24
  55.1170         25
  55.1355         29
  55.1541         31
  55.1727         28
  55.1913         25
  55.2098         33
  55.2284         22
  55.2470         27
  55.2656         39
  55.2841         32
  55.3027         16
  55.3213         23
  55.3399         26
  55.3585         32
  55.3770         24
  55.3956         32
  55.4142         24
  55.4328         25
  55.4513         21
  55.4699         22
  55.4885         25
  55.5071         23
  55.5256         33
  55.5442         33
  55.5628         33
  55.5814         28
  55.5999         24
  55.6185         30
  55.6371         34
  55.6557         32
  55.6742         28
  55.6928         23
  55.7114         26
  55.7300         29
  55.7485         35
  55.7671         16
  55.7857         29
  55.8043         30
  55.8228         26
  55.8414         37
  55.8600         32
  55.8786         28
  55.8971         34
  55.9157         27
  55.9343         25
  55.9529         24
  55.9714         20
  55.9900         27
  56.0086         32
  56.0272         34
  56.0457         29
  56.0643         34
  56.0829         29
  56.1015         24
  56.1201         19
  56.1386         25
  56.1572         29
  56.1758         28
  56.1944         25
  56.2129         30
  56.2315         43
  56.2501         28
  56.2687         33
  56.2872         26
  56.3058         30
  56.3244         21
  56.3430         35
  56.3615         27
  56.3801         32
  56.3987         31
  56.4173         24
  56.4358         24
  56.4544         20
  56.4730         27
  56.4916         31
  56.5101         22
  56.5287         44
  56.5473         28
  56.5659         28
  56.5844         36
  56.6030         32
  56.6216         21
  56.6402         28
  56.6587         26
  56.6773         28
  56.6959         34
  56.7145         25
  56.7330         20
  56.7516         43
  56.7702         26
  56.7888         30
  56.8073         26
  56.8259         21
  56.8445         30
  56.8631         26
  56.8817         33
  56.9002         33
  56.9188         27
  56.9374         29
  56.9560         28
  56.9745         25
  56.9931         26
  57.0117         27
  57.0303         20
  57.0488         30
  57.0674         29
  57.0860         27
  57.1046         23
  57.1231         25
  57.1417         24
  57.1603         23
  57.1789         38
  57.1974         37
  57.2160         27
  57.2346         28
  57.2532         32
  57.2717         32
  57.2903         17
  57.3089         30
  57.3275         25
  57.3460         22
  57.3646         31
  57.3832         29
  57.4018         24
  57.4203         34
  57.4389         22
  57.4575         19
  57.4761         19
  57.4946         27
  57.5132         29
  57.5318         30
  57.5504         28
  57.5689         21
  57.5875         28
  57.6061         26
  57.6247         22
  57.6433         37
  57.6618         23
  57.6804         37
  57.6990         36
  57.7176         29
  57.7361         24
  57.7547         32
  57.7733         24
  57.7919         26
  57.8104         27
  57.8290         31
  57.8476         29
  57.8662         33
  57.8847         26
  57.9033         31
  57.9219         25
  57.9405         30
  57.9590         23
  57.9776         27
  57.9962         30
  58.0148         21
  58.0333         29
  58.0519         24
  58.0705         37
  58.0891         30
  58.1076         28
  58.1262         14
  58.1448         22
  58.1634         30
  58.1819         41
  58.2005         33
  58.2191         18
  58.2377         24
  58.2562         26
  58.2748         31
  58.2934         22
  58.3120         20
  58.3305         24
  58.3491         25
  58.3677         25
  58.3863         25
  58.4049         30
  58.4234         29
  58.4420         34
  58.4606         32
  58.4792         25
  58.4977         18
  58.5163         22
  58.5349         21
  58.5535         26
  58.5720         25
  58.5906         27
  58.6092         29
  58.6278         30
  58.6463         27
  58.6649         22
  58.6835         28
  58.7021         20
  58.7206         22
  58.7392         22
  58.7578         30
  58.7764         27
  58.7949         32
  58.8135         34
  58.8321         36
  58.8507         34
  58.8692         28
  58.8878         36
  58.9064         31
  58.9250         26
  58.9435         21
  58.9621         31
  58.9807         23
  58.9993         23
  59.0178         31
  59.0364         23
  59.0550         29
  59.0736         23
  59.0921         21
  59.1107         23
  59.1293         25
  59.1479         24
  59.1664         21
  59.1850         20
  59.2036         18
  59.2222         24
  59.2408         36
  59.2593         21
  59.2779         18
  59.2965         32
  59.3151         20
  59.3336         23
  59.3522         24
  59.3708         27
  59.3894         19
  59.4079         30
  59.4265         28
  59.4451         21
  59.4637         25
  59.4822         43
  59.5008         20
  59.5194         27
  59.5380         26
  59.5565         24
  59.5751         29
  59.5937         23
  59.6123         25
  59.6308         26
  59.6494         41
  59.6680         25
  59.6866         25
  59.7051         26
  59.7237         28
  59.7423         28
  59.7609         38
  59.7794         26
  59.7980         28
  59.8166         29
  59.8352         27
  59.8537         20
  59.8723         31
  59.8909         24
  59.9095         26
  59.9280         20
  59.9466         17
  59.9652         31
  59.9838         31
  60.0024         27
