;,2THETA,
5.0000,126
5.0186,128
5.0372,125
5.0557,114
5.0743,141
5.0929,123
5.1115,123
5.1300,136
5.1486,140
5.1672,142
5.1858,125
5.2043,109
5.2229,119
5.2415,126
5.2601,134
5.2786,122
5.2972,111
5.3158,137
5.3344,102
5.3529,114
5.3715,147
5.3901,127
5.4087,123
5.4272,116
5.4458,110
5.4644,104
5.4830,127
5.5015,117
5.5201,137
5.5387,111
5.5573,111
5.5758,102
5.5944,115
5.6130,115
5.6316,107
5.6501,107
5.6687,111
5.6873,111
5.7059,110
5.7244,111
5.7430,124
5.7616,100
5.7802,83
5.7988,100
5.8173,101
5.8359,110
5.8545,107
5.8731,109
5.8916,89
5.9102,100
5.9288,97
5.9474,97
5.9659,106
5.9845,92
6.0031,113
6.0217,98
6.0402,94
6.0588,97
6.0774,102
6.0960,94
6.1145,100
6.1331,107
6.1517,96
6.1703,102
6.1888,76
6.2074,84
6.2260,89
6.2446,99
6.2631,100
6.2817,103
6.3003,87
6.3189,86
6.3374,76
6.3560,98
6.3746,110
6.3932,79
6.4117,103
6.4303,96
6.4489,108
6.4675,104
6.4860,98
6.5046,86
6.5232,100
6.5418,83
6.5604,92
6.5789,87
6.5975,92
6.6161,78
6.6347,98
6.6532,78
6.6718,108
6.6904,77
6.7090,85
6.7275,65
6.7461,95
6.7647,74
6.7833,82
6.8018,62
6.8204,91
6.8390,75
6.8576,83
6.8761,73
6.8947,59
6.9133,87
6.9319,70
6.9504,90
6.9690,73
6.9876,79
7.0062,90
7.0247,70
7.0433,87
7.0619,79
7.0805,72
7.0990,94
7.1176,86
7.1362,75
7.1548,82
7.1733,95
7.1919,84
7.2105,71
7.2291,74
7.2476,81
7.2662,83
7.2848,79
7.3034,67
7.3220,92
7.3405,77
7.3591,85
7.3777,87
7.3963,65
7.4148,91
7.4334,78
7.4520,74
7.4706,81
7.4891,79
7.5077,91
7.5263,86
7.5449,79
7.5634,80
7.5820,74
7.6006,91
7.6192,85
7.6377,87
7.6563,75
7.6749,73
7.6935,90
7.7120,68
7.7306,100
7.7492,87
7.7678,88
7.7863,89
7.8049,93
7.8235,94
7.8421,93
7.8606,87
7.8792,86
7.8978,86
7.9164,86
7.9349,90
7.9535,91
7.9721,91
7.9907,91
8.0092,87
8.0278,107
8.0464,80
8.0650,70
8.0835,73
8.1021,107
8.1207,95
8.1393,89
8.1579,82
8.1764,84
8.1950,82
8.2136,85
8.2322,95
8.2507,79
8.2693,105
8.2879,91
8.3065,85
8.3250,105
8.3436,103
8.3622,91
8.3808,93
8.3993,100
8.4179,91
8.4365,95
8.4551,102
8.4736,100
8.4922,92
8.5108,95
8.5294,82
8.5479,88
8.5665,106
8.5851,112
8.6037,94
8.6222,108
8.6408,101
8.6594,99
8.6780,84
8.6965,114
8.7151,93
8.7337,112
8.7523,101
8.7708,87
8.7894,105
8.8080,102
8.8266,92
8.8451,103
8.8637,108
8.8823,115
8.9009,98
8.9195,134
8.9380,103
8.9566,106
8.9752,100
8.9938,91
9.0123,115
9.0309,130
9.0495,135
9.0681,92
9.0866,99
9.1052,99
9.1238,100
9.1424,87
9.1609,110
9.1795,107
9.1981,91
9.2167,99
9.2352,103
9.2538,111
9.2724,105
9.2910,130
9.3095,99
9.3281,111
9.3467,110
9.3653,105
9.3838,116
9.4024,96
9.4210,103
9.4396,104
9.4581,117
9.4767,100
9.4953,101
9.5139,115
9.5324,118
9.5510,111
9.5696,103
9.5882,105
9.6067,127
9.6253,116
9.6439,133
9.6625,107
9.6811,107
9.6996,112
9.7182,103
9.7368,128
9.7554,116
9.7739,116
9.7925,122
9.8111,108
9.8297,134
9.8482,133
9.8668,130
9.8854,125
9.9040,127
9.9225,126
9.9411,116
9.9597,121
9.9783,124
9.9968,115
10.0154,117
10.0340,113
10.0526,122
10.0711,109
10.0897,115
10.1083,107
10.1269,105
10.1454,120
10.1640,121
10.1826,115
10.2012,115
10.2197,131
10.2383,125
10.2569,128
10.2755,114
10.2940,101
10.3126,120
10.3312,110
10.3498,114
10.3683,116
10.3869,138
10.4055,98
10.4241,125
10.4427,133
10.4612,111
10.4798,119
10.4984,136
10.5170,125
10.5355,131
10.5541,132
10.5727,130
10.5913,129
10.6098,115
10.6284,132
10.6470,116
10.6656,119
10.6841,128
10.7027,114
10.7213,117
10.7399,112
10.7584,121
10.7770,118
10.7956,114
10.8142,120
10.8327,92
10.8513,124
10.8699,120
10.8885,108
10.9070,122
10.9256,87
10.9442,108
10.9628,109
10.9813,120
10.9999,112
11.0185,128
11.0371,111
11.0556,124
11.0742,104
11.0928,134
11.1114,97
11.1299,92
11.1485,99
11.1671,102
11.1857,134
11.2043,137
11.2228,94
11.2414,102
11.2600,131
11.2786,112
11.2971,112
11.3157,119
11.3343,123
11.3529,118
11.3714,140
11.3900,108
11.4086,114
11.4272,144
11.4457,123
11.4643,112
11.4829,96
11.5015,99
11.5200,114
11.5386,110
11.5572,107
11.5758,133
11.5943,108
11.6129,110
11.6315,118
11.6501,111
11.6686,113
11.6872,95
11.7058,125
11.7244,114
11.7429,118
11.7615,111
11.7801,120
11.7987,111
11.8172,118
11.8358,127
11.8544,107
11.8730,122
11.8915,134
11.9101,115
11.9287,91
11.9473,112
11.9659,114
11.9844,136
12.0030,136
12.0216,109
12.0402,123
12.0587,116
12.0773,102
12.0959,107
12.1145,126
12.1330,104
12.1516,101
12.1702,110
12.1888,101
12.2073,104
12.2259,89
12.2445,116
12.2631,130
12.2816,112
12.3002,109
12.3188,114
12.3374,107
12.3559,110
12.3745,107
12.3931,84
12.4117,130
12.4302,130
12.4488,111
12.4674,95
12.4860,105
12.5045,111
12.5231,92
12.5417,132
12.5603,119
12.5788,134
12.5974,104
12.6160,109
12.6346,90
12.6531,99
12.6717,106
12.6903,104
12.7089,114
12.7274,123
12.7460,101
12.7646,108
12.7832,120
12.8018,98
12.8203,116
12.8389,94
12.8575,103
12.8761,95
12.8946,119
12.9132,108
12.9318,107
12.9504,99
12.9689,110
12.9875,113
13.0061,86
13.0247,104
13.0432,103
13.0618,95
13.0804,97
13.0990,113
13.1175,117
13.1361,100
13.1547,82
13.1733,96
13.1918,94
13.2104,107
13.2290,98
13.2476,119
13.2661,102
13.2847,101
13.3033,101
13.3219,100
13.3404,99
13.3590,99
13.3776,86
13.3962,89
13.4147,89
13.4333,93
13.4519,82
13.4705,101
13.4890,88
13.5076,109
13.5262,84
13.5448,97
13.5634,114
13.5819,115
13.6005,122
13.6191,102
13.6377,115
13.6562,107
13.6748,97
13.6934,99
13.7120,92
13.7305,89
13.7491,99
13.7677,99
13.7863,87
13.8048,99
13.8234,89
13.8420,87
13.8606,83
13.8791,100
13.8977,86
13.9163,97
13.9349,91
13.9534,74
13.9720,98
13.9906,96
14.0092,93
14.0277,102
14.0463,87
14.0649,90
14.0835,83
14.1020,79
14.1206,105
14.1392,91
14.1578,81
14.1763,86
14.1949,91
14.2135,82
14.2321,97
14.2506,104
14.2692,91
14.2878,87
14.3064,91
14.3250,90
14.3435,83
14.3621,86
14.3807,83
14.3993,71
14.4178,79
14.4364,90
14.4550,98
14.4736,99
14.4921,95
14.5107,84
14.5293,97
14.5479,103
14.5664,81
14.5850,73
14.6036,96
14.6222,89
14.6407,96
14.6593,74
14.6779,81
14.6965,77
14.7150,84
14.7336,80
14.7522,76
14.7708,79
14.7893,76
14.8079,90
14.8265,75
14.8451,98
14.8636,87
14.8822,96
14.9008,88
14.9194,95
14.9379,61
14.9565,71
14.9751,81
14.9937,76
15.0122,75
15.0308,80
15.0494,73
15.0680,82
15.0866,80
15.1051,66
15.1237,66
15.1423,82
15.1609,87
15.1794,74
15.1980,78
15.2166,72
15.2352,78
15.2537,86
15.2723,81
15.2909,76
15.3095,88
15.3280,80
15.3466,86
15.3652,72
15.3838,91
15.4023,81
15.4209,81
15.4395,84
15.4581,86
15.4766,82
15.4952,70
15.5138,79
15.5324,92
15.5509,83
15.5695,98
15.5881,79
15.6067,63
15.6252,79
15.6438,94
15.6624,84
15.6810,96
15.6995,89
15.7181,68
15.7367,83
15.7553,86
15.7738,85
15.7924,96
15.8110,84
15.8296,86
15.8482,95
15.8667,85
15.8853,75
15.9039,79
15.9225,91
15.9410,74
15.9596,87
15.9782,89
15.9968,78
16.0153,98
16.0339,76
16.0525,71
16.0711,79
16.0896,82
16.1082,88
16.1268,82
16.1454,78
16.1639,83
16.1825,75
16.2011,77
16.2197,74
16.2382,92
16.2568,75
16.2754,75
16.2940,91
16.3125,100
16.3311,76
16.3497,75
16.3683,85
16.3868,85
16.4054,92
16.4240,69
16.4426,54
16.4611,68
16.4797,74
16.4983,79
16.5169,81
16.5354,78
16.5540,100
16.5726,66
16.5912,86
16.6097,89
16.6283,79
16.6469,82
16.6655,78
16.6841,82
16.7026,93
16.7212,79
16.7398,73
16.7584,80
16.7769,74
16.7955,77
16.8141,105
16.8327,78
16.8512,92
16.8698,82
16.8884,89
16.9070,75
16.9255,96
16.9441,85
16.9627,82
16.9813,96
16.9998,81
17.0184,78
17.0370,81
17.0556,74
17.0741,81
17.0927,75
17.1113,83
17.1299,74
17.1484,75
17.1670,97
17.1856,85
17.2042,82
17.2227,88
17.2413,73
17.2599,99
17.2785,87
17.2970,89
17.3156,77
17.3342,88
17.3528,90
17.3713,78
17.3899,84
17.4085,71
17.4271,85
17.4457,81
17.4642,86
17.4828,80
17.5014,80
17.5200,75
17.5385,86
17.5571,69
17.5757,69
17.5943,80
17.6128,65
17.6314,81
17.6500,90
17.6686,85
17.6871,90
17.7057,91
17.7243,77
17.7429,78
17.7614,86
17.7800,70
17.7986,75
17.8172,86
17.8357,75
17.8543,83
17.8729,79
17.8915,67
17.9100,67
17.9286,80
17.9472,90
17.9658,91
17.9843,101
18.0029,71
18.0215,94
18.0401,79
18.0586,66
18.0772,79
18.0958,93
18.1144,76
18.1329,88
18.1515,87
18.1701,87
18.1887,74
18.2073,74
18.2258,79
18.2444,98
18.2630,82
18.2816,97
18.3001,76
18.3187,77
18.3373,73
18.3559,81
18.3744,89
18.3930,77
18.4116,68
18.4302,88
18.4487,86
18.4673,87
18.4859,72
18.5045,73
18.5230,77
18.5416,84
18.5602,79
18.5788,96
18.5973,77
18.6159,93
18.6345,96
18.6531,72
18.6716,90
18.6902,78
18.7088,80
18.7274,85
18.7459,91
18.7645,75
18.7831,94
18.8017,86
18.8202,78
18.8388,102
18.8574,73
18.8760,86
18.8945,78
18.9131,80
18.9317,81
18.9503,76
18.9689,72
18.9874,86
19.0060,85
19.0246,79
19.0432,97
19.0617,83
19.0803,84
19.0989,64
19.1175,91
19.1360,75
19.1546,75
19.1732,77
19.1918,107
19.2103,91
19.2289,102
19.2475,85
19.2661,79
19.2846,94
19.3032,77
19.3218,88
19.3404,95
19.3589,92
19.3775,83
19.3961,69
19.4147,100
19.4332,92
19.4518,96
19.4704,84
19.4890,80
19.5075,90
19.5261,90
19.5447,61
19.5633,81
19.5818,97
19.6004,76
19.6190,91
19.6376,83
19.6561,86
19.6747,95
19.6933,95
19.7119,74
19.7305,73
19.7490,77
19.7676,113
19.7862,87
19.8048,86
19.8233,77
19.8419,97
19.8605,90
19.8791,94
19.8976,107
19.9162,95
19.9348,88
19.9534,77
19.9719,81
19.9905,98
20.0091,110
20.0277,85
20.0462,85
20.0648,105
20.0834,98
20.1020,76
20.1205,82
20.1391,81
20.1577,90
20.1763,88
20.1948,76
20.2134,103
20.2320,77
20.2506,85
20.2691,91
20.2877,93
20.3063,75
20.3249,88
20.3434,100
20.3620,100
20.3806,105
20.3992,78
20.4177,89
20.4363,87
20.4549,83
20.4735,96
20.4921,96
20.5106,84
20.5292,88
20.5478,103
20.5664,115
20.5849,87
20.6035,101
20.6221,100
20.6407,98
20.6592,90
20.6778,92
20.6964,90
20.7150,87
20.7335,79
20.7521,96
20.7707,96
20.7893,91
20.8078,87
20.8264,98
20.8450,116
20.8636,95
20.8821,81
20.9007,96
20.9193,79
20.9379,108
20.9564,89
20.9750,94
20.9936,93
21.0122,100
21.0307,89
21.0493,97
21.0679,102
21.0865,105
21.1050,96
21.1236,109
21.1422,109
21.1608,99
21.1793,140
21.1979,144
21.2165,177
21.2351,158
21.2537,155
21.2722,136
21.2908,151
21.3094,145
21.3280,179
21.3465,242
21.3651,239
21.3837,229
21.4023,181
21.4208,178
21.4394,137
21.4580,97
21.4766,105
21.4951,104
21.5137,98
21.5323,85
21.5509,109
21.5694,113
21.5880,87
21.6066,99
21.6252,103
21.6437,86
21.6623,83
21.6809,102
21.6995,102
21.7180,73
21.7366,93
21.7552,95
21.7738,100
21.7923,93
21.8109,114
21.8295,100
21.8481,97
21.8666,94
21.8852,70
21.9038,97
21.9224,81
21.9409,104
21.9595,95
21.9781,81
21.9967,89
22.0152,107
22.0338,90
22.0524,87
22.0710,93
22.0896,96
22.1081,108
22.1267,73
22.1453,99
22.1639,104
22.1824,104
22.2010,98
22.2196,102
22.2382,99
22.2567,81
22.2753,91
22.2939,99
22.3125,88
22.3310,100
22.3496,102
22.3682,114
22.3868,109
22.4053,93
22.4239,103
22.4425,84
22.4611,122
22.4796,91
22.4982,92
22.5168,89
22.5354,114
22.5539,87
22.5725,116
22.5911,97
22.6097,116
22.6282,89
22.6468,102
22.6654,94
22.6840,88
22.7025,109
22.7211,106
22.7397,102
22.7583,105
22.7768,93
22.7954,103
22.8140,93
22.8326,103
22.8512,103
22.8697,111
22.8883,113
22.9069,103
22.9255,98
22.9440,99
22.9626,98
22.9812,106
22.9998,98
23.0183,106
23.0369,88
23.0555,86
23.0741,96
23.0926,105
23.1112,119
23.1298,90
23.1484,105
23.1669,102
23.1855,78
23.2041,114
23.2227,97
23.2412,103
23.2598,93
23.2784,103
23.2970,79
23.3155,112
23.3341,91
23.3527,96
23.3713,107
23.3898,110
23.4084,106
23.4270,119
23.4456,113
23.4641,91
23.4827,100
23.5013,103
23.5199,113
23.5384,125
23.5570,106
23.5756,89
23.5942,104
23.6128,115
23.6313,121
23.6499,109
23.6685,106
23.6871,106
23.7056,95
23.7242,93
23.7428,102
23.7614,85
23.7799,102
23.7985,113
23.8171,106
23.8357,104
23.8542,92
23.8728,118
23.8914,111
23.9100,103
23.9285,98
23.9471,87
23.9657,94
23.9843,101
24.0028,104
24.0214,101
24.0400,85
24.0586,86
24.0771,100
24.0957,124
24.1143,82
24.1329,99
24.1514,96
24.1700,104
24.1886,107
24.2072,93
24.2257,123
24.2443,101
24.2629,100
24.2815,123
24.3000,123
24.3186,96
24.3372,102
24.3558,107
24.3744,91
24.3929,96
24.4115,109
24.4301,100
24.4487,95
24.4672,103
24.4858,99
24.5044,108
24.5230,106
24.5415,100
24.5601,109
24.5787,106
24.5973,98
24.6158,128
24.6344,107
24.6530,91
24.6716,100
24.6901,119
24.7087,115
24.7273,91
24.7459,99
24.7644,90
24.7830,118
24.8016,109
24.8202,121
24.8387,93
24.8573,94
24.8759,100
24.8945,85
24.9130,111
24.9316,85
24.9502,114
24.9688,74
24.9873,108
25.0059,102
25.0245,97
25.0431,75
25.0616,87
25.0802,101
25.0988,110
25.1174,81
25.1360,87
25.1545,128
25.1731,104
25.1917,116
25.2103,87
25.2288,92
25.2474,82
25.2660,95
25.2846,98
25.3031,84
25.3217,108
25.3403,117
25.3589,89
25.3774,82
25.3960,102
25.4146,105
25.4332,99
25.4517,123
25.4703,85
25.4889,101
25.5075,104
25.5260,88
25.5446,79
25.5632,104
25.5818,98
25.6003,85
25.6189,82
25.6375,101
25.6561,103
25.6746,100
25.6932,93
25.7118,92
25.7304,99
25.7489,73
25.7675,89
25.7861,81
25.8047,96
25.8232,94
25.8418,90
25.8604,86
25.8790,104
25.8976,95
25.9161,96
25.9347,120
25.9533,115
25.9719,79
25.9904,96
26.0090,85
26.0276,84
26.0462,103
26.0647,90
26.0833,86
26.1019,101
26.1205,77
26.1390,91
26.1576,95
26.1762,89
26.1948,95
26.2133,93
26.2319,94
26.2505,73
26.2691,101
26.2876,97
26.3062,105
26.3248,94
26.3434,95
26.3619,92
26.3805,84
26.3991,97
26.4177,121
26.4362,108
26.4548,92
26.4734,80
26.4920,103
26.5105,90
26.5291,96
26.5477,95
26.5663,94
26.5848,98
26.6034,108
26.6220,93
26.6406,111
26.6591,125
26.6777,95
26.6963,96
26.7149,91
26.7335,86
26.7520,81
26.7706,101
26.7892,84
26.8078,94
26.8263,97
26.8449,104
26.8635,98
26.8821,92
26.9006,94
26.9192,89
26.9378,107
26.9564,92
26.9749,99
26.9935,82
27.0121,106
27.0307,96
27.0492,91
27.0678,98
27.0864,95
27.1050,105
27.1235,97
27.1421,115
27.1607,90
27.1793,105
27.1978,123
27.2164,113
27.2350,105
27.2536,116
27.2721,116
27.2907,115
27.3093,116
27.3279,77
27.3464,87
27.3650,114
27.3836,107
27.4022,94
27.4207,111
27.4393,81
27.4579,89
27.4765,78
27.4951,91
27.5136,85
27.5322,85
27.5508,89
27.5694,77
27.5879,93
27.6065,88
27.6251,87
27.6437,92
27.6622,86
27.6808,80
27.6994,90
27.7180,89
27.7365,97
27.7551,94
27.7737,71
27.7923,97
27.8108,96
27.8294,91
27.8480,77
27.8666,99
27.8851,93
27.9037,96
27.9223,78
27.9409,86
27.9594,79
27.9780,67
27.9966,79
28.0152,85
28.0337,78
28.0523,91
28.0709,76
28.0895,69
28.1080,80
28.1266,87
28.1452,84
28.1638,81
28.1823,88
28.2009,90
28.2195,92
28.2381,104
28.2567,96
28.2752,87
28.2938,116
28.3124,72
28.3310,80
28.3495,90
28.3681,75
28.3867,78
28.4053,92
28.4238,89
28.4424,86
28.4610,79
28.4796,84
28.4981,85
28.5167,86
28.5353,70
28.5539,79
28.5724,72
28.5910,90
28.6096,90
28.6282,96
28.6467,92
28.6653,97
28.6839,69
28.7025,94
28.7210,90
28.7396,81
28.7582,106
28.7768,73
28.7953,74
28.8139,88
28.8325,84
28.8511,68
28.8696,74
28.8882,87
28.9068,78
28.9254,69
28.9439,87
28.9625,80
28.9811,88
28.9997,112
29.0183,90
29.0368,77
29.0554,76
29.0740,90
29.0926,70
29.1111,81
29.1297,68
29.1483,88
29.1669,78
29.1854,75
29.2040,61
29.2226,94
29.2412,72
29.2597,91
29.2783,80
29.2969,80
29.3155,78
29.3340,74
29.3526,70
29.3712,87
29.3898,95
29.4083,77
29.4269,86
29.4455,86
29.4641,97
29.4826,90
29.5012,92
29.5198,73
29.5384,79
29.5569,82
29.5755,84
29.5941,90
29.6127,81
29.6312,71
29.6498,96
29.6684,78
29.6870,75
29.7055,69
29.7241,68
29.7427,81
29.7613,79
29.7799,72
29.7984,76
29.8170,69
29.8356,69
29.8542,73
29.8727,70
29.8913,72
29.9099,91
29.9285,96
29.9470,82
29.9656,74
29.9842,77
30.0028,70
30.0213,82
30.0399,82
30.0585,92
30.0771,75
30.0956,70
30.1142,84
30.1328,90
30.1514,75
30.1699,84
30.1885,81
30.2071,84
30.2257,75
30.2442,90
30.2628,71
30.2814,84
30.3000,77
30.3185,93
30.3371,100
30.3557,128
30.3743,171
30.3928,164
30.4114,129
30.4300,125
30.4486,123
30.4671,131
30.4857,114
30.5043,105
30.5229,69
30.5415,80
30.5600,83
30.5786,80
30.5972,77
30.6158,78
30.6343,72
30.6529,69
30.6715,82
30.6901,74
30.7086,83
30.7272,74
30.7458,80
30.7644,81
30.7829,72
30.8015,64
30.8201,58
30.8387,49
30.8572,87
30.8758,72
30.8944,81
30.9130,81
30.9315,94
30.9501,89
30.9687,76
30.9873,80
31.0058,74
31.0244,76
31.0430,60
31.0616,80
31.0801,50
31.0987,70
31.1173,81
31.1359,56
31.1544,66
31.1730,77
31.1916,79
31.2102,56
31.2287,72
31.2473,74
31.2659,65
31.2845,67
31.3030,66
31.3216,56
31.3402,68
31.3588,77
31.3774,65
31.3959,72
31.4145,78
31.4331,73
31.4517,56
31.4702,69
31.4888,57
31.5074,77
31.5260,74
31.5445,66
31.5631,63
31.5817,63
31.6003,71
31.6188,68
31.6374,71
31.6560,75
31.6746,61
31.6931,63
31.7117,71
31.7303,58
31.7489,84
31.7674,70
31.7860,53
31.8046,63
31.8232,64
31.8417,61
31.8603,73
31.8789,87
31.8975,73
31.9160,59
31.9346,68
31.9532,59
31.9718,73
31.9903,77
32.0089,70
32.0275,63
32.0461,60
32.0646,66
32.0832,54
32.1018,59
32.1204,54
32.1390,60
32.1575,46
32.1761,62
32.1947,71
32.2133,62
32.2318,70
32.2504,69
32.2690,67
32.2876,61
32.3061,59
32.3247,67
32.3433,66
32.3619,72
32.3804,69
32.3990,60
32.4176,55
32.4362,75
32.4547,80
32.4733,80
32.4919,70
32.5105,55
32.5290,76
32.5476,77
32.5662,73
32.5848,62
32.6033,79
32.6219,52
32.6405,57
32.6591,49
32.6776,72
32.6962,83
32.7148,79
32.7334,62
32.7519,65
32.7705,67
32.7891,71
32.8077,58
32.8262,61
32.8448,63
32.8634,72
32.8820,63
32.9006,82
32.9191,69
32.9377,66
32.9563,58
32.9749,69
32.9934,72
33.0120,68
33.0306,64
33.0492,62
33.0677,56
33.0863,56
33.1049,59
33.1235,66
33.1420,74
33.1606,70
33.1792,49
33.1978,68
33.2163,50
33.2349,60
33.2535,60
33.2721,52
33.2906,61
33.3092,66
33.3278,56
33.3464,71
33.3649,61
33.3835,50
33.4021,67
33.4207,66
33.4392,55
33.4578,60
33.4764,54
33.4950,54
33.5135,58
33.5321,67
33.5507,48
33.5693,55
33.5878,58
33.6064,59
33.6250,71
33.6436,65
33.6622,60
33.6807,53
33.6993,70
33.7179,54
33.7365,56
33.7550,53
33.7736,57
33.7922,55
33.8108,66
33.8293,57
33.8479,73
33.8665,67
33.8851,65
33.9036,53
33.9222,51
33.9408,62
33.9594,53
33.9779,60
33.9965,62
34.0151,65
34.0337,54
34.0522,63
34.0708,49
34.0894,53
34.1080,63
34.1265,55
34.1451,53
34.1637,58
34.1823,49
34.2008,64
34.2194,60
34.2380,56
34.2566,53
34.2751,43
34.2937,46
34.3123,59
34.3309,58
34.3494,54
34.3680,58
34.3866,57
34.4052,66
34.4238,48
34.4423,47
34.4609,49
34.4795,56
34.4981,58
34.5166,52
34.5352,51
34.5538,64
34.5724,65
34.5909,71
34.6095,47
34.6281,71
34.6467,62
34.6652,55
34.6838,67
34.7024,60
34.7210,86
34.7395,82
34.7581,71
34.7767,92
34.7953,72
34.8138,62
34.8324,63
34.8510,72
34.8696,80
34.8881,57
34.9067,76
34.9253,56
34.9439,53
34.9624,52
34.9810,60
34.9996,54
35.0182,46
35.0367,54
35.0553,63
35.0739,39
35.0925,59
35.1110,50
35.1296,59
35.1482,49
35.1668,48
35.1854,54
35.2039,59
35.2225,34
35.2411,38
35.2597,53
35.2782,55
35.2968,55
35.3154,44
35.3340,56
35.3525,52
35.3711,55
35.3897,53
35.4083,45
35.4268,57
35.4454,55
35.4640,46
35.4826,46
35.5011,57
35.5197,43
35.5383,32
35.5569,57
35.5754,49
35.5940,59
35.6126,47
35.6312,55
35.6497,56
35.6683,57
35.6869,38
35.7055,56
35.7240,44
35.7426,46
35.7612,56
35.7798,63
35.7983,45
35.8169,49
35.8355,44
35.8541,52
35.8726,48
35.8912,49
35.9098,52
35.9284,43
35.9469,46
35.9655,52
35.9841,42
36.0027,41
36.0213,49
36.0398,43
36.0584,56
36.0770,45
36.0956,41
36.1141,45
36.1327,45
36.1513,51
36.1699,46
36.1884,46
36.2070,61
36.2256,59
36.2442,44
36.2627,42
36.2813,47
36.2999,49
36.3185,44
36.3370,47
36.3556,46
36.3742,40
36.3928,29
36.4113,42
36.4299,43
36.4485,38
36.4671,57
36.4856,48
36.5042,47
36.5228,55
36.5414,49
36.5599,47
36.5785,42
36.5971,47
36.6157,47
36.6342,46
36.6528,43
36.6714,61
36.6900,45
36.7085,49
36.7271,44
36.7457,47
36.7643,52
36.7829,46
36.8014,60
36.8200,38
36.8386,53
36.8572,51
36.8757,50
36.8943,60
36.9129,45
36.9315,41
36.9500,48
36.9686,50
36.9872,38
37.0058,40
37.0243,54
37.0429,55
37.0615,37
37.0801,50
37.0986,36
37.1172,35
37.1358,46
37.1544,45
37.1729,35
37.1915,49
37.2101,52
37.2287,65
37.2472,45
37.2658,51
37.2844,44
37.3030,46
37.3215,48
37.3401,49
37.3587,52
37.3773,62
37.3958,63
37.4144,56
37.4330,80
37.4516,76
37.4701,56
37.4887,67
37.5073,62
37.5259,45
37.5445,68
37.5630,51
37.5816,51
37.6002,58
37.6188,37
37.6373,34
37.6559,45
37.6745,39
37.6931,43
37.7116,32
37.7302,45
37.7488,33
37.7674,51
37.7859,42
37.8045,40
37.8231,54
37.8417,45
37.8602,38
37.8788,34
37.8974,37
37.9160,45
37.9345,46
37.9531,52
37.9717,34
37.9903,48
38.0088,35
38.0274,46
38.0460,43
38.0646,48
38.0831,45
38.1017,52
38.1203,44
38.1389,53
38.1574,39
38.1760,38
38.1946,43
38.2132,38
38.2317,44
38.2503,44
38.2689,48
38.2875,53
38.3061,38
38.3246,30
38.3432,35
38.3618,43
38.3804,43
38.3989,35
38.4175,45
38.4361,31
38.4547,34
38.4732,45
38.4918,34
38.5104,36
38.5290,45
38.5475,41
38.5661,35
38.5847,39
38.6033,47
38.6218,47
38.6404,40
38.6590,44
38.6776,48
38.6961,41
38.7147,37
38.7333,37
38.7519,44
38.7704,44
38.7890,48
38.8076,44
38.8262,46
38.8447,28
38.8633,44
38.8819,48
38.9005,46
38.9190,45
38.9376,39
38.9562,46
38.9748,52
38.9933,38
39.0119,37
39.0305,47
39.0491,47
39.0677,60
39.0862,36
39.1048,54
39.1234,41
39.1420,40
39.1605,39
39.1791,29
39.1977,43
39.2163,37
39.2348,43
39.2534,44
39.2720,43
39.2906,49
39.3091,54
39.3277,39
39.3463,37
39.3649,46
39.3834,35
39.4020,41
39.4206,30
39.4392,40
39.4577,36
39.4763,26
39.4949,48
39.5135,50
39.5320,41
39.5506,36
39.5692,46
39.5878,33
39.6063,37
39.6249,30
39.6435,36
39.6621,41
39.6806,37
39.6992,33
39.7178,43
39.7364,42
39.7549,39
39.7735,40
39.7921,43
39.8107,39
39.8293,32
39.8478,37
39.8664,32
39.8850,42
39.9036,43
39.9221,42
39.9407,49
39.9593,43
39.9779,42
39.9964,41
40.0150,42
40.0336,36
40.0522,40
40.0707,43
40.0893,33
40.1079,34
40.1265,27
40.1450,43
40.1636,46
40.1822,32
40.2008,44
40.2193,35
40.2379,42
40.2565,25
40.2751,44
40.2936,35
40.3122,45
40.3308,37
40.3494,36
40.3679,30
40.3865,44
40.4051,54
40.4237,34
40.4422,39
40.4608,29
40.4794,41
40.4980,38
40.5165,34
40.5351,34
40.5537,30
40.5723,34
40.5908,49
40.6094,37
40.6280,42
40.6466,36
40.6652,41
40.6837,48
40.7023,38
40.7209,37
40.7395,46
40.7580,38
40.7766,41
40.7952,43
40.8138,39
40.8323,37
40.8509,44
40.8695,43
40.8881,41
40.9066,37
40.9252,34
40.9438,59
40.9624,49
40.9809,42
40.9995,44
41.0181,44
41.0367,35
41.0552,33
41.0738,50
41.0924,46
41.1110,40
41.1295,44
41.1481,39
41.1667,41
41.1853,44
41.2038,42
41.2224,40
41.2410,26
41.2596,26
41.2781,37
41.2967,34
41.3153,38
41.3339,28
41.3524,29
41.3710,41
41.3896,53
41.4082,45
41.4268,32
41.4453,31
41.4639,28
41.4825,33
41.5011,31
41.5196,42
41.5382,38
41.5568,40
41.5754,46
41.5939,39
41.6125,40
41.6311,43
41.6497,41
41.6682,25
41.6868,26
41.7054,28
41.7240,36
41.7425,37
41.7611,26
41.7797,26
41.7983,33
41.8168,46
41.8354,35
41.8540,35
41.8726,37
41.8911,37
41.9097,38
41.9283,27
41.9469,43
41.9654,36
41.9840,34
42.0026,33
42.0212,37
42.0397,38
42.0583,29
42.0769,32
42.0955,37
42.1140,44
42.1326,37
42.1512,38
42.1698,33
42.1884,31
42.2069,33
42.2255,27
42.2441,37
42.2627,28
42.2812,39
42.2998,34
42.3184,41
42.3370,37
42.3555,41
42.3741,42
42.3927,45
42.4113,49
42.4298,39
42.4484,44
42.4670,31
42.4856,38
42.5041,39
42.5227,34
42.5413,34
42.5599,24
42.5784,43
42.5970,35
42.6156,29
42.6342,33
42.6527,33
42.6713,38
42.6899,50
42.7085,34
42.7270,46
42.7456,39
42.7642,35
42.7828,46
42.8013,39
42.8199,36
42.8385,26
42.8571,30
42.8756,26
42.8942,34
42.9128,41
42.9314,40
42.9500,41
42.9685,42
42.9871,36
43.0057,30
43.0243,40
43.0428,49
43.0614,24
43.0800,35
43.0986,44
43.1171,37
43.1357,42
43.1543,38
43.1729,48
43.1914,42
43.2100,34
43.2286,47
43.2472,41
43.2657,42
43.2843,50
43.3029,50
43.3215,38
43.3400,44
43.3586,38
43.3772,36
43.3958,40
43.4143,37
43.4329,37
43.4515,40
43.4701,39
43.4886,71
43.5072,72
43.5258,60
43.5444,49
43.5629,40
43.5815,40
43.6001,43
43.6187,48
43.6372,53
43.6558,40
43.6744,43
43.6930,48
43.7116,36
43.7301,36
43.7487,34
43.7673,26
43.7859,33
43.8044,32
43.8230,26
43.8416,38
43.8602,51
43.8787,40
43.8973,34
43.9159,38
43.9345,36
43.9530,33
43.9716,30
43.9902,35
44.0088,36
44.0273,30
44.0459,37
44.0645,30
44.0831,34
44.1016,36
44.1202,43
44.1388,29
44.1574,37
44.1759,43
44.1945,29
44.2131,35
44.2317,49
44.2502,43
44.2688,30
44.2874,30
44.3060,39
44.3245,39
44.3431,30
44.3617,44
44.3803,27
44.3988,39
44.4174,31
44.4360,32
44.4546,40
44.4732,46
44.4917,37
44.5103,31
44.5289,43
44.5475,32
44.5660,43
44.5846,34
44.6032,32
44.6218,39
44.6403,27
44.6589,46
44.6775,48
44.6961,51
44.7146,28
44.7332,39
44.7518,50
44.7704,31
44.7889,38
44.8075,50
44.8261,32
44.8447,40
44.8632,43
44.8818,47
44.9004,53
44.9190,28
44.9375,37
44.9561,41
44.9747,27
44.9933,40
45.0118,32
45.0304,36
45.0490,42
45.0676,42
45.0861,32
45.1047,34
45.1233,34
45.1419,39
45.1604,23
45.1790,44
45.1976,35
45.2162,35
45.2347,38
45.2533,39
45.2719,35
45.2905,41
45.3091,33
45.3276,29
45.3462,31
45.3648,38
45.3834,39
45.4019,38
45.4205,47
45.4391,24
45.4577,33
45.4762,32
45.4948,38
45.5134,34
45.5320,32
45.5505,27
45.5691,35
45.5877,23
45.6063,27
45.6248,42
45.6434,35
45.6620,25
45.6806,36
45.6991,35
45.7177,29
45.7363,25
45.7549,23
45.7734,39
45.7920,27
45.8106,37
45.8292,28
45.8477,45
45.8663,31
45.8849,26
45.9035,27
45.9220,32
45.9406,30
45.9592,40
45.9778,37
45.9963,25
46.0149,32
46.0335,42
46.0521,36
46.0707,32
46.0892,34
46.1078,32
46.1264,33
46.1450,27
46.1635,31
46.1821,40
46.2007,33
46.2193,29
46.2378,26
46.2564,42
46.2750,34
46.2936,24
46.3121,33
46.3307,28
46.3493,38
46.3679,28
46.3864,34
46.4050,35
46.4236,32
46.4422,29
46.4607,29
46.4793,32
46.4979,28
46.5165,38
46.5350,47
46.5536,31
46.5722,35
46.5908,39
46.6093,34
46.6279,23
46.6465,31
46.6651,25
46.6836,47
46.7022,38
46.7208,34
46.7394,37
46.7579,22
46.7765,29
46.7951,36
46.8137,25
46.8323,38
46.8508,31
46.8694,41
46.8880,35
46.9066,26
46.9251,34
46.9437,35
46.9623,28
46.9809,46
46.9994,27
47.0180,27
47.0366,39
47.0552,38
47.0737,27
47.0923,34
47.1109,35
47.1295,34
47.1480,31
47.1666,33
47.1852,38
47.2038,29
47.2223,43
47.2409,28
47.2595,30
47.2781,24
47.2966,30
47.3152,33
47.3338,40
47.3524,36
47.3709,24
47.3895,31
47.4081,26
47.4267,35
47.4452,27
47.4638,38
47.4824,31
47.5010,24
47.5195,21
47.5381,26
47.5567,32
47.5753,34
47.5939,37
47.6124,39
47.6310,31
47.6496,37
47.6682,27
47.6867,28
47.7053,25
47.7239,47
47.7425,43
47.7610,33
47.7796,27
47.7982,32
47.8168,27
47.8353,22
47.8539,35
47.8725,35
47.8911,31
47.9096,25
47.9282,33
47.9468,20
47.9654,32
47.9839,42
48.0025,28
48.0211,43
48.0397,36
48.0582,30
48.0768,23
48.0954,28
48.1140,29
48.1325,28
48.1511,20
48.1697,33
48.1883,24
48.2068,35
48.2254,28
48.2440,37
48.2626,29
48.2811,32
48.2997,29
48.3183,29
48.3369,26
48.3555,25
48.3740,27
48.3926,19
48.4112,27
48.4298,39
48.4483,31
48.4669,28
48.4855,41
48.5041,34
48.5226,37
48.5412,16
48.5598,35
48.5784,44
48.5969,31
48.6155,38
48.6341,36
48.6527,30
48.6712,36
48.6898,34
48.7084,24
48.7270,26
48.7455,33
48.7641,39
48.7827,37
48.8013,45
48.8198,32
48.8384,39
48.8570,32
48.8756,38
48.8941,35
48.9127,42
48.9313,43
48.9499,63
48.9684,61
48.9870,45
49.0056,43
49.0242,36
49.0427,37
49.0613,32
49.0799,46
49.0985,58
49.1171,46
49.1356,42
49.1542,35
49.1728,30
49.1914,35
49.2099,28
49.2285,28
49.2471,28
49.2657,26
49.2842,31
49.3028,34
49.3214,32
49.3400,33
49.3585,37
49.3771,46
49.3957,23
49.4143,23
49.4328,33
49.4514,41
49.4700,30
49.4886,28
49.5071,29
49.5257,33
49.5443,28
49.5629,24
49.5814,30
49.6000,35
49.6186,28
49.6372,30
49.6557,40
49.6743,19
49.6929,39
49.7115,25
49.7300,35
49.7486,38
49.7672,30
49.7858,25
49.8043,29
49.8229,31
49.8415,35
49.8601,35
49.8786,24
49.8972,36
49.9158,35
49.9344,33
49.9530,38
49.9715,25
49.9901,36
50.0087,32
50.0273,35
50.0458,20
50.0644,32
50.0830,32
50.1016,23
50.1201,42
50.1387,30
50.1573,30
50.1759,31
50.1944,27
50.2130,30
50.2316,30
50.2502,30
50.2687,32
50.2873,31
50.3059,27
50.3245,26
50.3430,40
50.3616,31
50.3802,31
50.3988,16
50.4173,35
50.4359,29
50.4545,36
50.4731,34
50.4916,24
50.5102,15
50.5288,33
50.5474,31
50.5659,34
50.5845,33
50.6031,21
50.6217,24
50.6402,35
50.6588,28
50.6774,31
50.6960,27
50.7146,31
50.7331,39
50.7517,23
50.7703,23
50.7889,28
50.8074,29
50.8260,33
50.8446,29
50.8632,31
50.8817,33
50.9003,32
50.9189,31
50.9375,31
50.9560,27
50.9746,33
50.9932,37
51.0118,21
51.0303,26
51.0489,26
51.0675,31
51.0861,36
51.1046,23
51.1232,38
51.1418,24
51.1604,33
51.1789,44
51.1975,33
51.2161,33
51.2347,31
51.2532,32
51.2718,36
51.2904,30
51.3090,31
51.3275,38
51.3461,23
51.3647,38
51.3833,44
51.4018,19
51.4204,33
51.4390,37
51.4576,25
51.4762,15
51.4947,22
51.5133,32
51.5319,46
51.5505,40
51.5690,39
51.5876,21
51.6062,30
51.6248,31
51.6433,26
51.6619,44
51.6805,30
51.6991,31
51.7176,34
51.7362,33
51.7548,30
51.7734,37
51.7919,45
51.8105,26
51.8291,37
51.8477,38
51.8662,36
51.8848,38
51.9034,24
51.9220,33
51.9405,38
51.9591,37
51.9777,28
51.9963,39
52.0148,38
52.0334,38
52.0520,31
52.0706,37
52.0891,33
52.1077,22
52.1263,26
52.1449,27
52.1634,34
52.1820,22
52.2006,26
52.2192,31
52.2378,35
52.2563,26
52.2749,23
52.2935,26
52.3121,28
52.3306,20
52.3492,28
52.3678,26
52.3864,19
52.4049,36
52.4235,38
52.4421,32
52.4607,31
52.4792,39
52.4978,32
52.5164,32
52.5350,25
52.5535,28
52.5721,14
52.5907,34
52.6093,27
52.6278,33
52.6464,31
52.6650,26
52.6836,21
52.7021,19
52.7207,21
52.7393,35
52.7579,29
52.7764,33
52.7950,24
52.8136,22
52.8322,29
52.8507,31
52.8693,33
52.8879,23
52.9065,38
52.9250,32
52.9436,31
52.9622,31
52.9808,38
52.9994,35
53.0179,35
53.0365,36
53.0551,36
53.0737,28
53.0922,36
53.1108,29
53.1294,28
53.1480,26
53.1665,26
53.1851,27
53.2037,21
53.2223,35
53.2408,37
53.2594,27
53.2780,33
53.2966,34
53.3151,22
53.3337,20
53.3523,37
53.3709,30
53.3894,34
53.4080,28
53.4266,24
53.4452,31
53.4637,26
53.4823,40
53.5009,25
53.5195,33
53.5380,30
53.5566,29
53.5752,23
53.5938,33
53.6123,28
53.6309,32
53.6495,33
53.6681,33
53.6866,32
53.7052,32
53.7238,32
53.7424,28
53.7610,43
53.7795,29
53.7981,20
53.8167,27
53.8353,35
53.8538,32
53.8724,25
53.8910,44
53.9096,36
53.9281,34
53.9467,36
53.9653,33
53.9839,27
54.0024,48
54.0210,48
54.0396,30
54.0582,27
54.0767,38
54.0953,35
54.1139,26
54.1325,45
54.1510,43
54.1696,35
54.1882,25
54.2068,23
54.2253,27
54.2439,25
54.2625,19
54.2811,19
54.2996,27
54.3182,27
54.3368,24
54.3554,25
54.3739,20
54.3925,38
54.4111,41
54.4297,23
54.4482,30
54.4668,31
54.4854,34
54.5040,31
54.5225,29
54.5411,32
54.5597,25
54.5783,26
54.5969,28
54.6154,26
54.6340,21
54.6526,31
54.6712,27
54.6897,32
54.7083,30
54.7269,32
54.7455,25
54.7640,27
54.7826,20
54.8012,33
54.8198,28
54.8383,42
54.8569,27
54.8755,24
54.8941,34
54.9126,20
54.9312,40
54.9498,29
54.9684,28
54.9869,22
55.0055,36
55.0241,31
55.0427,28
55.0612,28
55.0798,18
55.0984,33
55.1170,26
55.1355,21
55.1541,28
55.1727,34
55.1913,21
55.2098,25
55.2284,29
55.2470,31
55.2656,28
55.2841,31
55.3027,30
55.3213,27
55.3399,27
55.3585,21
55.3770,26
55.3956,22
55.4142,27
55.4328,31
55.4513,26
55.4699,32
55.4885,36
55.5071,28
55.5256,26
55.5442,31
55.5628,36
55.5814,24
55.5999,25
55.6185,21
55.6371,26
55.6557,31
55.6742,28
55.6928,23
55.7114,22
55.7300,38
55.7485,23
55.7671,31
55.7857,26
55.8043,31
55.8228,27
55.8414,28
55.8600,24
55.8786,26
55.8971,30
55.9157,35
55.9343,22
55.9529,19
55.9714,32
55.9900,25
56.0086,36
56.0272,25
56.0457,20
56.0643,27
56.0829,27
56.1015,34
56.1201,26
56.1386,31
56.1572,26
56.1758,17
56.1944,29
56.2129,38
56.2315,37
56.2501,32
56.2687,33
56.2872,28
56.3058,33
56.3244,26
56.3430,39
56.3615,30
56.3801,27
56.3987,35
56.4173,32
56.4358,18
56.4544,28
56.4730,28
56.4916,18
56.5101,24
56.5287,39
56.5473,31
56.5659,32
56.5844,24
56.6030,35
56.6216,24
56.6402,32
56.6587,19
56.6773,15
56.6959,33
56.7145,34
56.7330,24
56.7516,36
56.7702,29
56.7888,22
56.8073,26
56.8259,24
56.8445,32
56.8631,31
56.8817,35
56.9002,27
56.9188,33
56.9374,28
56.9560,19
56.9745,28
56.9931,30
57.0117,18
57.0303,34
57.0488,29
57.0674,19
57.0860,22
57.1046,29
57.1231,39
57.1417,29
57.1603,23
57.1789,21
57.1974,27
57.2160,35
57.2346,37
57.2532,27
57.2717,32
57.2903,24
57.3089,17
57.3275,32
57.3460,25
57.3646,25
57.3832,21
57.4018,31
57.4203,21
57.4389,27
57.4575,26
57.4761,29
57.4946,36
57.5132,27
57.5318,24
57.5504,36
57.5689,30
57.5875,27
57.6061,38
57.6247,25
57.6433,22
57.6618,32
57.6804,31
57.6990,29
57.7176,25
57.7361,30
57.7547,30
57.7733,29
57.7919,20
57.8104,25
57.8290,28
57.8476,34
57.8662,25
57.8847,42
57.9033,26
57.9219,39
57.9405,26
57.9590,29
57.9776,25
57.9962,31
58.0148,21
58.0333,28
58.0519,38
58.0705,34
58.0891,11
58.1076,35
58.1262,22
58.1448,38
58.1634,30
58.1819,20
58.2005,25
58.2191,23
58.2377,15
58.2562,30
58.2748,30
58.2934,27
58.3120,32
58.3305,27
58.3491,16
58.3677,23
58.3863,22
58.4049,29
58.4234,32
58.4420,22
58.4606,30
58.4792,23
58.4977,26
58.5163,28
58.5349,27
58.5535,31
58.5720,23
58.5906,25
58.6092,17
58.6278,34
58.6463,23
58.6649,25
58.6835,26
58.7021,19
58.7206,29
58.7392,24
58.7578,22
58.7764,29
58.7949,21
58.8135,31
58.8321,27
58.8507,22
58.8692,23
58.8878,31
58.9064,32
58.9250,26
58.9435,28
58.9621,37
58.9807,31
58.9993,39
59.0178,26
59.0364,29
59.0550,27
59.0736,26
59.0921,34
59.1107,37
59.1293,20
59.1479,29
59.1664,26
59.1850,21
59.2036,18
59.2222,23
59.2408,32
59.2593,37
59.2779,24
59.2965,25
59.3151,15
59.3336,27
59.3522,27
59.3708,21
59.3894,24
59.4079,23
59.4265,27
59.4451,25
59.4637,26
59.4822,27
59.5008,25
59.5194,37
59.5380,29
59.5565,25
59.5751,37
59.5937,30
59.6123,27
59.6308,19
59.6494,26
59.6680,26
59.6866,18
59.7051,26
59.7237,26
59.7423,28
59.7609,32
59.7794,33
59.7980,23
59.8166,23
59.8352,30
59.8537,32
59.8723,27
59.8909,20
59.9095,28
59.9280,26
59.9466,25
59.9652,31
59.9838,27
60.0024,31
