;,2THETA,
5.0000,106
5.0186,90
5.0372,91
5.0557,121
5.0743,85
5.0929,95
5.1115,87
5.1300,96
5.1486,105
5.1672,88
5.1858,74
5.2043,105
5.2229,84
5.2415,103
5.2601,79
5.2786,101
5.2972,89
5.3158,88
5.3344,84
5.3529,81
5.3715,88
5.3901,73
5.4087,78
5.4272,80
5.4458,90
5.4644,97
5.4830,112
5.5015,70
5.5201,106
5.5387,83
5.5573,77
5.5758,74
5.5944,79
5.6130,82
5.6316,79
5.6501,72
5.6687,90
5.6873,76
5.7059,73
5.7244,84
5.7430,70
5.7616,78
5.7802,61
5.7988,76
5.8173,85
5.8359,72
5.8545,82
5.8731,69
5.8916,76
5.9102,84
5.9288,75
5.9474,84
5.9659,77
5.9845,72
6.0031,77
6.0217,90
6.0402,79
6.0588,81
6.0774,80
6.0960,66
6.1145,66
6.1331,68
6.1517,62
6.1703,72
6.1888,66
6.2074,61
6.2260,76
6.2446,78
6.2631,65
6.2817,63
6.3003,66
6.3189,58
6.3374,71
6.3560,70
6.3746,63
6.3932,57
6.4117,77
6.4303,57
6.4489,61
6.4675,79
6.4860,74
6.5046,54
6.5232,56
6.5418,62
6.5604,84
6.5789,53
6.5975,61
6.6161,75
6.6347,52
6.6532,61
6.6718,55
6.6904,62
6.7090,65
6.7275,61
6.7461,43
6.7647,52
6.7833,67
6.8018,68
6.8204,58
6.8390,64
6.8576,53
6.8761,69
6.8947,63
6.9133,67
6.9319,46
6.9504,60
6.9690,55
6.9876,52
7.0062,67
7.0247,58
7.0433,62
7.0619,50
7.0805,38
7.0990,51
7.1176,69
7.1362,71
7.1548,57
7.1733,49
7.1919,56
7.2105,83
7.2291,67
7.2476,35
7.2662,51
7.2848,53
7.3034,67
7.3220,64
7.3405,49
7.3591,61
7.3777,50
7.3963,50
7.4148,51
7.4334,44
7.4520,58
7.4706,66
7.4891,52
7.5077,65
7.5263,63
7.5449,56
7.5634,79
7.5820,73
7.6006,63
7.6192,65
7.6377,63
7.6563,56
7.6749,60
7.6935,66
7.7120,52
7.7306,70
7.7492,57
7.7678,61
7.7863,57
7.8049,67
7.8235,74
7.8421,71
7.8606,67
7.8792,79
7.8978,76
7.9164,67
7.9349,64
7.9535,69
7.9721,59
7.9907,55
8.0092,74
8.0278,66
8.0464,77
8.0650,76
8.0835,66
8.1021,60
8.1207,73
8.1393,78
8.1579,67
8.1764,61
8.1950,84
8.2136,63
8.2322,61
8.2507,70
8.2693,59
8.2879,64
8.3065,71
8.3250,70
8.3436,72
8.3622,74
8.3808,80
8.3993,61
8.4179,69
8.4365,81
8.4551,92
8.4736,68
8.4922,82
8.5108,76
8.5294,85
8.5479,65
8.5665,69
8.5851,60
8.6037,81
8.6222,92
8.6408,89
8.6594,66
8.6780,66
8.6965,70
8.7151,76
8.7337,74
8.7523,84
8.7708,80
8.7894,77
8.8080,71
8.8266,86
8.8451,87
8.8637,86
8.8823,72
8.9009,80
8.9195,66
8.9380,68
8.9566,87
8.9752,84
8.9938,79
9.0123,90
9.0309,89
9.0495,84
9.0681,74
9.0866,81
9.1052,77
9.1238,85
9.1424,65
9.1609,68
9.1795,81
9.1981,75
9.2167,71
9.2352,71
9.2538,86
9.2724,79
9.2910,73
9.3095,79
9.3281,75
9.3467,76
9.3653,85
9.3838,79
9.4024,62
9.4210,83
9.4396,88
9.4581,86
9.4767,85
9.4953,66
9.5139,76
9.5324,76
9.5510,82
9.5696,77
9.5882,72
9.6067,83
9.6253,91
9.6439,86
9.6625,94
9.6811,97
9.6996,86
9.7182,70
9.7368,75
9.7554,77
9.7739,80
9.7925,80
9.8111,85
9.8297,75
9.8482,86
9.8668,94
9.8854,80
9.9040,82
9.9225,79
9.9411,82
9.9597,92
9.9783,79
9.9968,90
10.0154,95
10.0340,88
10.0526,83
10.0711,91
10.0897,86
10.1083,91
10.1269,78
10.1454,91
10.1640,96
10.1826,77
10.2012,94
10.2197,75
10.2383,70
10.2569,92
10.2755,94
10.2940,78
10.3126,80
10.3312,96
10.3498,76
10.3683,95
10.3869,74
10.4055,99
10.4241,92
10.4427,115
10.4612,83
10.4798,90
10.4984,77
10.5170,88
10.5355,90
10.5541,77
10.5727,116
10.5913,71
10.6098,91
10.6284,80
10.6470,91
10.6656,78
10.6841,76
10.7027,70
10.7213,92
10.7399,91
10.7584,76
10.7770,101
10.7956,86
10.8142,76
10.8327,90
10.8513,90
10.8699,101
10.8885,100
10.9070,77
10.9256,92
10.9442,79
10.9628,88
10.9813,100
10.9999,81
11.0185,83
11.0371,83
11.0556,82
11.0742,90
11.0928,88
11.1114,107
11.1299,81
11.1485,90
11.1671,71
11.1857,96
11.2043,109
11.2228,83
11.2414,88
11.2600,79
11.2786,87
11.2971,86
11.3157,91
11.3343,92
11.3529,90
11.3714,94
11.3900,89
11.4086,92
11.4272,84
11.4457,94
11.4643,95
11.4829,88
11.5015,95
11.5200,90
11.5386,103
11.5572,88
11.5758,73
11.5943,97
11.6129,80
11.6315,85
11.6501,105
11.6686,81
11.6872,87
11.7058,103
11.7244,81
11.7429,94
11.7615,87
11.7801,72
11.7987,82
11.8172,70
11.8358,91
11.8544,94
11.8730,84
11.8915,77
11.9101,84
11.9287,88
11.9473,69
11.9659,76
11.9844,88
12.0030,77
12.0216,96
12.0402,74
12.0587,79
12.0773,83
12.0959,89
12.1145,77
12.1330,79
12.1516,88
12.1702,68
12.1888,78
12.2073,72
12.2259,74
12.2445,81
12.2631,74
12.2816,91
12.3002,84
12.3188,83
12.3374,85
12.3559,77
12.3745,91
12.3931,75
12.4117,72
12.4302,83
12.4488,76
12.4674,77
12.4860,81
12.5045,84
12.5231,67
12.5417,78
12.5603,82
12.5788,72
12.5974,97
12.6160,75
12.6346,82
12.6531,77
12.6717,70
12.6903,70
12.7089,74
12.7274,73
12.7460,97
12.7646,85
12.7832,87
12.8018,86
12.8203,77
12.8389,71
12.8575,94
12.8761,72
12.8946,78
12.9132,79
12.9318,81
12.9504,88
12.9689,70
12.9875,69
13.0061,85
13.0247,77
13.0432,75
13.0618,78
13.0804,83
13.0990,69
13.1175,73
13.1361,69
13.1547,88
13.1733,76
13.1918,74
13.2104,84
13.2290,68
13.2476,71
13.2661,83
13.2847,78
13.3033,73
13.3219,78
13.3404,72
13.3590,77
13.3776,74
13.3962,72
13.4147,85
13.4333,63
13.4519,72
13.4705,84
13.4890,59
13.5076,72
13.5262,76
13.5448,79
13.5634,72
13.5819,61
13.6005,73
13.6191,71
13.6377,65
13.6562,73
13.6748,75
13.6934,68
13.7120,79
13.7305,62
13.7491,54
13.7677,65
13.7863,104
13.8048,68
13.8234,63
13.8420,68
13.8606,73
13.8791,59
13.8977,64
13.9163,82
13.9349,69
13.9534,65
13.9720,65
13.9906,59
14.0092,50
14.0277,69
14.0463,70
14.0649,57
14.0835,73
14.1020,69
14.1206,77
14.1392,61
14.1578,73
14.1763,65
14.1949,59
14.2135,75
14.2321,64
14.2506,65
14.2692,54
14.2878,68
14.3064,66
14.3250,76
14.3435,61
14.3621,77
14.3807,67
14.3993,53
14.4178,81
14.4364,58
14.4550,70
14.4736,58
14.4921,54
14.5107,62
14.5293,56
14.5479,72
14.5664,67
14.5850,74
14.6036,57
14.6222,54
14.6407,70
14.6593,68
14.6779,60
14.6965,66
14.7150,61
14.7336,60
14.7522,65
14.7708,63
14.7893,64
14.8079,49
14.8265,63
14.8451,65
14.8636,68
14.8822,60
14.9008,60
14.9194,80
14.9379,62
14.9565,55
14.9751,67
14.9937,64
15.0122,58
15.0308,53
15.0494,48
15.0680,56
15.0866,62
15.1051,52
15.1237,58
15.1423,44
15.1609,69
15.1794,67
15.1980,65
15.2166,69
15.2352,60
15.2537,68
15.2723,56
15.2909,44
15.3095,61
15.3280,69
15.3466,75
15.3652,57
15.3838,63
15.4023,57
15.4209,59
15.4395,60
15.4581,47
15.4766,49
15.4952,70
15.5138,71
15.5324,51
15.5509,55
15.5695,56
15.5881,58
15.6067,47
15.6252,56
15.6438,65
15.6624,58
15.6810,72
15.6995,52
15.7181,63
15.7367,61
15.7553,59
15.7738,50
15.7924,62
15.8110,65
15.8296,50
15.8482,65
15.8667,68
15.8853,53
15.9039,69
15.9225,54
15.9410,60
15.9596,59
15.9782,62
15.9968,62
16.0153,51
16.0339,47
16.0525,56
16.0711,57
16.0896,55
16.1082,59
16.1268,65
16.1454,45
16.1639,58
16.1825,69
16.2011,66
16.2197,73
16.2382,49
16.2568,59
16.2754,50
16.2940,48
16.3125,63
16.3311,50
16.3497,58
16.3683,59
16.3868,42
16.4054,66
16.4240,49
16.4426,59
16.4611,77
16.4797,57
16.4983,52
16.5169,57
16.5354,41
16.5540,65
16.5726,56
16.5912,55
16.6097,83
16.6283,55
16.6469,50
16.6655,59
16.6841,71
16.7026,62
16.7212,58
16.7398,57
16.7584,63
16.7769,49
16.7955,55
16.8141,49
16.8327,49
16.8512,66
16.8698,58
16.8884,67
16.9070,54
16.9255,63
16.9441,56
16.9627,51
16.9813,53
16.9998,52
17.0184,55
17.0370,39
17.0556,67
17.0741,57
17.0927,58
17.1113,65
17.1299,57
17.1484,58
17.1670,59
17.1856,52
17.2042,51
17.2227,70
17.2413,61
17.2599,64
17.2785,67
17.2970,63
17.3156,62
17.3342,52
17.3528,49
17.3713,54
17.3899,71
17.4085,63
17.4271,61
17.4457,48
17.4642,67
17.4828,60
17.5014,52
17.5200,57
17.5385,54
17.5571,55
17.5757,67
17.5943,56
17.6128,50
17.6314,65
17.6500,56
17.6686,50
17.6871,52
17.7057,70
17.7243,50
17.7429,60
17.7614,72
17.7800,59
17.7986,61
17.8172,61
17.8357,60
17.8543,75
17.8729,65
17.8915,59
17.9100,60
17.9286,66
17.9472,54
17.9658,50
17.9843,55
18.0029,54
18.0215,52
18.0401,70
18.0586,53
18.0772,59
18.0958,66
18.1144,47
18.1329,64
18.1515,59
18.1701,65
18.1887,50
18.2073,65
18.2258,60
18.2444,67
18.2630,63
18.2816,69
18.3001,58
18.3187,52
18.3373,62
18.3559,63
18.3744,62
18.3930,57
18.4116,63
18.4302,61
18.4487,66
18.4673,69
18.4859,64
18.5045,56
18.5230,66
18.5416,62
18.5602,75
18.5788,64
18.5973,73
18.6159,62
18.6345,57
18.6531,67
18.6716,79
18.6902,60
18.7088,54
18.7274,49
18.7459,67
18.7645,71
18.7831,74
18.8017,59
18.8202,69
18.8388,72
18.8574,45
18.8760,70
18.8945,66
18.9131,63
18.9317,74
18.9503,61
18.9689,61
18.9874,61
19.0060,61
19.0246,69
19.0432,65
19.0617,64
19.0803,53
19.0989,63
19.1175,66
19.1360,71
19.1546,62
19.1732,63
19.1918,79
19.2103,57
19.2289,70
19.2475,58
19.2661,54
19.2846,49
19.3032,55
19.3218,77
19.3404,65
19.3589,68
19.3775,60
19.3961,66
19.4147,64
19.4332,56
19.4518,63
19.4704,62
19.4890,73
19.5075,63
19.5261,60
19.5447,64
19.5633,54
19.5818,53
19.6004,77
19.6190,54
19.6376,53
19.6561,68
19.6747,70
19.6933,65
19.7119,64
19.7305,62
19.7490,59
19.7676,72
19.7862,67
19.8048,80
19.8233,57
19.8419,74
19.8605,77
19.8791,64
19.8976,62
19.9162,72
19.9348,72
19.9534,62
19.9719,60
19.9905,84
20.0091,82
20.0277,57
20.0462,62
20.0648,80
20.0834,59
20.1020,64
20.1205,69
20.1391,78
20.1577,72
20.1763,56
20.1948,65
20.2134,67
20.2320,78
20.2506,66
20.2691,67
20.2877,74
20.3063,68
20.3249,73
20.3434,68
20.3620,60
20.3806,63
20.3992,72
20.4177,68
20.4363,74
20.4549,75
20.4735,58
20.4921,67
20.5106,75
20.5292,69
20.5478,74
20.5664,71
20.5849,65
20.6035,72
20.6221,81
20.6407,76
20.6592,75
20.6778,78
20.6964,65
20.7150,74
20.7335,69
20.7521,60
20.7707,65
20.7893,67
20.8078,73
20.8264,62
20.8450,51
20.8636,77
20.8821,65
20.9007,63
20.9193,74
20.9379,74
20.9564,74
20.9750,79
20.9936,61
21.0122,52
21.0307,61
21.0493,73
21.0679,65
21.0865,85
21.1050,85
21.1236,95
21.1422,82
21.1608,71
21.1793,94
21.1979,94
21.2165,120
21.2351,109
21.2537,109
21.2722,101
21.2908,135
21.3094,121
21.3280,127
21.3465,176
21.3651,211
21.3837,174
21.4023,150
21.4208,141
21.4394,111
21.4580,84
21.4766,93
21.4951,66
21.5137,105
21.5323,65
21.5509,65
21.5694,93
21.5880,78
21.6066,68
21.6252,67
21.6437,75
21.6623,69
21.6809,73
21.6995,76
21.7180,70
21.7366,69
21.7552,73
21.7738,81
21.7923,78
21.8109,73
21.8295,86
21.8481,71
21.8666,82
21.8852,78
21.9038,70
21.9224,60
21.9409,69
21.9595,76
21.9781,76
21.9967,78
22.0152,67
22.0338,72
22.0524,65
22.0710,69
22.0896,80
22.1081,69
22.1267,69
22.1453,65
22.1639,76
22.1824,72
22.2010,64
22.2196,80
22.2382,76
22.2567,87
22.2753,89
22.2939,97
22.3125,70
22.3310,74
22.3496,71
22.3682,68
22.3868,60
22.4053,76
22.4239,61
22.4425,62
22.4611,77
22.4796,74
22.4982,75
22.5168,69
22.5354,54
22.5539,73
22.5725,81
22.5911,72
22.6097,86
22.6282,83
22.6468,86
22.6654,86
22.6840,65
22.7025,79
22.7211,82
22.7397,56
22.7583,94
22.7768,74
22.7954,88
22.8140,74
22.8326,80
22.8512,93
22.8697,81
22.8883,60
22.9069,75
22.9255,75
22.9440,72
22.9626,72
22.9812,71
22.9998,59
23.0183,61
23.0369,68
23.0555,66
23.0741,82
23.0926,67
23.1112,57
23.1298,69
23.1484,74
23.1669,80
23.1855,70
23.2041,52
23.2227,78
23.2412,61
23.2598,66
23.2784,77
23.2970,86
23.3155,63
23.3341,85
23.3527,75
23.3713,74
23.3898,55
23.4084,72
23.4270,80
23.4456,81
23.4641,62
23.4827,71
23.5013,66
23.5199,82
23.5384,79
23.5570,85
23.5756,83
23.5942,65
23.6128,72
23.6313,85
23.6499,70
23.6685,83
23.6871,78
23.7056,62
23.7242,65
23.7428,71
23.7614,66
23.7799,64
23.7985,68
23.8171,59
23.8357,72
23.8542,59
23.8728,66
23.8914,76
23.9100,76
23.9285,72
23.9471,67
23.9657,84
23.9843,60
24.0028,72
24.0214,61
24.0400,84
24.0586,93
24.0771,78
24.0957,65
24.1143,73
24.1329,74
24.1514,80
24.1700,65
24.1886,86
24.2072,74
24.2257,70
24.2443,75
24.2629,90
24.2815,84
24.3000,79
24.3186,76
24.3372,85
24.3558,66
24.3744,74
24.3929,100
24.4115,62
24.4301,69
24.4487,71
24.4672,63
24.4858,80
24.5044,86
24.5230,79
24.5415,73
24.5601,75
24.5787,90
24.5973,67
24.6158,68
24.6344,67
24.6530,78
24.6716,92
24.6901,78
24.7087,68
24.7273,65
24.7459,67
24.7644,73
24.7830,69
24.8016,71
24.8202,77
24.8387,79
24.8573,77
24.8759,85
24.8945,86
24.9130,73
24.9316,91
24.9502,76
24.9688,72
24.9873,74
25.0059,71
25.0245,68
25.0431,92
25.0616,71
25.0802,69
25.0988,88
25.1174,85
25.1360,72
25.1545,73
25.1731,71
25.1917,64
25.2103,67
25.2288,72
25.2474,67
25.2660,80
25.2846,73
25.3031,54
25.3217,75
25.3403,56
25.3589,84
25.3774,76
25.3960,71
25.4146,89
25.4332,86
25.4517,87
25.4703,80
25.4889,80
25.5075,66
25.5260,69
25.5446,69
25.5632,62
25.5818,78
25.6003,77
25.6189,60
25.6375,65
25.6561,79
25.6746,74
25.6932,69
25.7118,66
25.7304,74
25.7489,70
25.7675,79
25.7861,73
25.8047,68
25.8232,78
25.8418,67
25.8604,57
25.8790,66
25.8976,68
25.9161,72
25.9347,59
25.9533,77
25.9719,70
25.9904,81
26.0090,70
26.0276,81
26.0462,75
26.0647,92
26.0833,70
26.1019,65
26.1205,69
26.1390,72
26.1576,85
26.1762,63
26.1948,65
26.2133,67
26.2319,70
26.2505,69
26.2691,74
26.2876,64
26.3062,80
26.3248,73
26.3434,66
26.3619,59
26.3805,81
26.3991,71
26.4177,61
26.4362,75
26.4548,78
26.4734,71
26.4920,67
26.5105,66
26.5291,64
26.5477,71
26.5663,67
26.5848,78
26.6034,78
26.6220,74
26.6406,74
26.6591,65
26.6777,64
26.6963,72
26.7149,64
26.7335,89
26.7520,68
26.7706,63
26.7892,56
26.8078,67
26.8263,74
26.8449,61
26.8635,73
26.8821,78
26.9006,61
26.9192,75
26.9378,73
26.9564,75
26.9749,64
26.9935,80
27.0121,70
27.0307,60
27.0492,73
27.0678,72
27.0864,57
27.1050,67
27.1235,70
27.1421,80
27.1607,72
27.1793,96
27.1978,106
27.2164,107
27.2350,76
27.2536,86
27.2721,100
27.2907,92
27.3093,66
27.3279,66
27.3464,76
27.3650,76
27.3836,64
27.4022,46
27.4207,64
27.4393,61
27.4579,77
27.4765,54
27.4951,72
27.5136,73
27.5322,51
27.5508,61
27.5694,65
27.5879,67
27.6065,66
27.6251,59
27.6437,68
27.6622,63
27.6808,56
27.6994,84
27.7180,78
27.7365,77
27.7551,71
27.7737,75
27.7923,77
27.8108,79
27.8294,61
27.8480,56
27.8666,82
27.8851,67
27.9037,62
27.9223,56
27.9409,65
27.9594,73
27.9780,74
27.9966,63
28.0152,57
28.0337,51
28.0523,55
28.0709,55
28.0895,68
28.1080,64
28.1266,58
28.1452,60
28.1638,73
28.1823,69
28.2009,53
28.2195,53
28.2381,44
28.2567,59
28.2752,75
28.2938,63
28.3124,67
28.3310,70
28.3495,78
28.3681,66
28.3867,70
28.4053,59
28.4238,68
28.4424,62
28.4610,63
28.4796,73
28.4981,59
28.5167,57
28.5353,73
28.5539,53
28.5724,57
28.5910,65
28.6096,76
28.6282,60
28.6467,62
28.6653,67
28.6839,53
28.7025,56
28.7210,57
28.7396,68
28.7582,59
28.7768,70
28.7953,68
28.8139,61
28.8325,63
28.8511,71
28.8696,65
28.8882,56
28.9068,59
28.9254,67
28.9439,72
28.9625,72
28.9811,57
28.9997,54
29.0183,63
29.0368,67
29.0554,47
29.0740,60
29.0926,54
29.1111,62
29.1297,55
29.1483,57
29.1669,63
29.1854,56
29.2040,62
29.2226,59
29.2412,52
29.2597,48
29.2783,58
29.2969,63
29.3155,47
29.3340,57
29.3526,62
29.3712,45
29.3898,66
29.4083,68
29.4269,55
29.4455,61
29.4641,68
29.4826,50
29.5012,69
29.5198,73
29.5384,62
29.5569,54
29.5755,63
29.5941,66
29.6127,52
29.6312,76
29.6498,54
29.6684,56
29.6870,61
29.7055,70
29.7241,52
29.7427,59
29.7613,45
29.7799,59
29.7984,55
29.8170,50
29.8356,60
29.8542,57
29.8727,55
29.8913,62
29.9099,52
29.9285,61
29.9470,57
29.9656,64
29.9842,56
30.0028,52
30.0213,56
30.0399,62
30.0585,62
30.0771,53
30.0956,59
30.1142,55
30.1328,56
30.1514,59
30.1699,54
30.1885,61
30.2071,62
30.2257,67
30.2442,56
30.2628,54
30.2814,60
30.3000,61
30.3185,73
30.3371,74
30.3557,77
30.3743,128
30.3928,123
30.4114,107
30.4300,86
30.4486,98
30.4671,78
30.4857,67
30.5043,61
30.5229,56
30.5415,56
30.5600,65
30.5786,65
30.5972,40
30.6158,42
30.6343,68
30.6529,61
30.6715,49
30.6901,60
30.7086,44
30.7272,48
30.7458,48
30.7644,42
30.7829,62
30.8015,55
30.8201,60
30.8387,62
30.8572,47
30.8758,50
30.8944,45
30.9130,44
30.9315,62
30.9501,64
30.9687,67
30.9873,51
31.0058,52
31.0244,59
31.0430,59
31.0616,54
31.0801,40
31.0987,46
31.1173,66
31.1359,56
31.1544,45
31.1730,51
31.1916,54
31.2102,51
31.2287,56
31.2473,70
31.2659,52
31.2845,49
31.3030,63
31.3216,60
31.3402,56
31.3588,41
31.3774,54
31.3959,51
31.4145,48
31.4331,50
31.4517,39
31.4702,57
31.4888,59
31.5074,43
31.5260,45
31.5445,43
31.5631,55
31.5817,53
31.6003,38
31.6188,41
31.6374,44
31.6560,45
31.6746,59
31.6931,51
31.7117,36
31.7303,63
31.7489,43
31.7674,50
31.7860,54
31.8046,58
31.8232,66
31.8417,43
31.8603,40
31.8789,41
31.8975,53
31.9160,52
31.9346,50
31.9532,38
31.9718,47
31.9903,51
32.0089,57
32.0275,44
32.0461,48
32.0646,47
32.0832,47
32.1018,56
32.1204,39
32.1390,42
32.1575,51
32.1761,49
32.1947,52
32.2133,45
32.2318,37
32.2504,46
32.2690,52
32.2876,39
32.3061,40
32.3247,52
32.3433,44
32.3619,50
32.3804,52
32.3990,55
32.4176,45
32.4362,50
32.4547,59
32.4733,51
32.4919,53
32.5105,53
32.5290,53
32.5476,61
32.5662,58
32.5848,47
32.6033,63
32.6219,50
32.6405,51
32.6591,46
32.6776,55
32.6962,38
32.7148,37
32.7334,51
32.7519,51
32.7705,51
32.7891,36
32.8077,50
32.8262,39
32.8448,55
32.8634,35
32.8820,53
32.9006,41
32.9191,52
32.9377,59
32.9563,42
32.9749,43
32.9934,33
33.0120,41
33.0306,46
33.0492,55
33.0677,39
33.0863,50
33.1049,43
33.1235,40
33.1420,45
33.1606,41
33.1792,51
33.1978,41
33.2163,46
33.2349,47
33.2535,36
33.2721,50
33.2906,32
33.3092,32
33.3278,36
33.3464,43
33.3649,47
33.3835,36
33.4021,45
33.4207,35
33.4392,40
33.4578,43
33.4764,29
33.4950,47
33.5135,44
33.5321,36
33.5507,33
33.5693,44
33.5878,38
33.6064,44
33.6250,44
33.6436,50
33.6622,43
33.6807,48
33.6993,58
33.7179,47
33.7365,45
33.7550,28
33.7736,42
33.7922,39
33.8108,39
33.8293,43
33.8479,49
33.8665,43
33.8851,48
33.9036,39
33.9222,42
33.9408,58
33.9594,55
33.9779,43
33.9965,47
34.0151,43
34.0337,40
34.0522,42
34.0708,44
34.0894,47
34.1080,30
34.1265,35
34.1451,31
34.1637,47
34.1823,32
34.2008,31
34.2194,32
34.2380,38
34.2566,39
34.2751,34
34.2937,41
34.3123,46
34.3309,46
34.3494,38
34.3680,48
34.3866,37
34.4052,45
34.4238,47
34.4423,48
34.4609,49
34.4795,45
34.4981,52
34.5166,36
34.5352,31
34.5538,42
34.5724,54
34.5909,38
34.6095,52
34.6281,43
34.6467,50
34.6652,49
34.6838,49
34.7024,62
34.7210,36
34.7395,66
34.7581,55
34.7767,55
34.7953,63
34.8138,56
34.8324,65
34.8510,54
34.8696,49
34.8881,47
34.9067,55
34.9253,42
34.9439,42
34.9624,43
34.9810,38
34.9996,47
35.0182,35
35.0367,44
35.0553,31
35.0739,42
35.0925,41
35.1110,31
35.1296,43
35.1482,49
35.1668,30
35.1854,44
35.2039,40
35.2225,37
35.2411,48
35.2597,35
35.2782,37
35.2968,43
35.3154,54
35.3340,34
35.3525,47
35.3711,49
35.3897,30
35.4083,32
35.4268,34
35.4454,36
35.4640,39
35.4826,42
35.5011,33
35.5197,31
35.5383,28
35.5569,26
35.5754,41
35.5940,38
35.6126,31
35.6312,43
35.6497,30
35.6683,37
35.6869,40
35.7055,34
35.7240,45
35.7426,38
35.7612,33
35.7798,36
35.7983,41
35.8169,37
35.8355,30
35.8541,38
35.8726,53
35.8912,38
35.9098,36
35.9284,43
35.9469,38
35.9655,31
35.9841,34
36.0027,37
36.0213,39
36.0398,42
36.0584,37
36.0770,43
36.0956,50
36.1141,53
36.1327,48
36.1513,36
36.1699,26
36.1884,39
36.2070,44
36.2256,41
36.2442,29
36.2627,31
36.2813,38
36.2999,24
36.3185,34
36.3370,34
36.3556,25
36.3742,30
36.3928,30
36.4113,35
36.4299,31
36.4485,39
36.4671,34
36.4856,28
36.5042,31
36.5228,38
36.5414,43
36.5599,24
36.5785,33
36.5971,37
36.6157,34
36.6342,37
36.6528,34
36.6714,29
36.6900,26
36.7085,41
36.7271,35
36.7457,29
36.7643,32
36.7829,36
36.8014,36
36.8200,39
36.8386,38
36.8572,31
36.8757,27
36.8943,30
36.9129,32
36.9315,33
36.9500,31
36.9686,25
36.9872,35
37.0058,30
37.0243,28
37.0429,40
37.0615,38
37.0801,44
37.0986,36
37.1172,29
37.1358,28
37.1544,33
37.1729,32
37.1915,24
37.2101,24
37.2287,25
37.2472,24
37.2658,41
37.2844,38
37.3030,33
37.3215,39
37.3401,44
37.3587,39
37.3773,29
37.3958,42
37.4144,54
37.4330,72
37.4516,52
37.4701,62
37.4887,42
37.5073,47
37.5259,53
37.5445,39
37.5630,46
37.5816,39
37.6002,36
37.6188,30
37.6373,21
37.6559,34
37.6745,40
37.6931,29
37.7116,46
37.7302,27
37.7488,28
37.7674,30
37.7859,37
37.8045,22
37.8231,26
37.8417,27
37.8602,27
37.8788,40
37.8974,27
37.9160,37
37.9345,33
37.9531,30
37.9717,32
37.9903,36
38.0088,31
38.0274,29
38.0460,40
38.0646,32
38.0831,28
38.1017,26
38.1203,27
38.1389,29
38.1574,22
38.1760,26
38.1946,32
38.2132,24
38.2317,37
38.2503,33
38.2689,33
38.2875,44
38.3061,29
38.3246,27
38.3432,37
38.3618,26
38.3804,21
38.3989,31
38.4175,32
38.4361,35
38.4547,25
38.4732,32
38.4918,31
38.5104,34
38.5290,38
38.5475,30
38.5661,30
38.5847,28
38.6033,31
38.6218,33
38.6404,37
38.6590,40
38.6776,39
38.6961,24
38.7147,25
38.7333,29
38.7519,30
38.7704,23
38.7890,24
38.8076,31
38.8262,28
38.8447,29
38.8633,34
38.8819,24
38.9005,29
38.9190,27
38.9376,26
38.9562,43
38.9748,39
38.9933,33
39.0119,33
39.0305,23
39.0491,29
39.0677,41
39.0862,34
39.1048,26
39.1234,30
39.1420,30
39.1605,28
39.1791,20
39.1977,20
39.2163,30
39.2348,23
39.2534,22
39.2720,22
39.2906,27
39.3091,37
39.3277,32
39.3463,23
39.3649,39
39.3834,20
39.4020,28
39.4206,21
39.4392,39
39.4577,39
39.4763,29
39.4949,23
39.5135,29
39.5320,24
39.5506,34
39.5692,30
39.5878,29
39.6063,45
39.6249,28
39.6435,26
39.6621,27
39.6806,24
39.6992,38
39.7178,28
39.7364,31
39.7549,23
39.7735,33
39.7921,27
39.8107,32
39.8293,34
39.8478,29
39.8664,26
39.8850,25
39.9036,24
39.9221,22
39.9407,25
39.9593,25
39.9779,28
39.9964,32
40.0150,27
40.0336,27
40.0522,35
40.0707,30
40.0893,35
40.1079,31
40.1265,24
40.1450,27
40.1636,26
40.1822,25
40.2008,22
40.2193,34
40.2379,21
40.2565,29
40.2751,24
40.2936,13
40.3122,32
40.3308,35
40.3494,23
40.3679,27
40.3865,21
40.4051,30
40.4237,18
40.4422,26
40.4608,22
40.4794,31
40.4980,28
40.5165,24
40.5351,28
40.5537,30
40.5723,17
40.5908,25
40.6094,27
40.6280,27
40.6466,22
40.6652,28
40.6837,30
40.7023,34
40.7209,33
40.7395,27
40.7580,33
40.7766,29
40.7952,31
40.8138,31
40.8323,22
40.8509,36
40.8695,31
40.8881,36
40.9066,35
40.9252,26
40.9438,28
40.9624,31
40.9809,34
40.9995,23
41.0181,36
41.0367,20
41.0552,36
41.0738,25
41.0924,30
41.1110,29
41.1295,34
41.1481,29
41.1667,31
41.1853,28
41.2038,28
41.2224,24
41.2410,22
41.2596,24
41.2781,25
41.2967,24
41.3153,33
41.3339,26
41.3524,29
41.3710,34
41.3896,24
41.4082,32
41.4268,24
41.4453,23
41.4639,33
41.4825,30
41.5011,24
41.5196,22
41.5382,37
41.5568,31
41.5754,29
41.5939,24
41.6125,33
41.6311,29
41.6497,36
41.6682,25
41.6868,23
41.7054,25
41.7240,24
41.7425,32
41.7611,33
41.7797,25
41.7983,22
41.8168,26
41.8354,32
41.8540,29
41.8726,29
41.8911,24
41.9097,26
41.9283,25
41.9469,18
41.9654,34
41.9840,23
42.0026,27
42.0212,32
42.0397,26
42.0583,19
42.0769,31
42.0955,23
42.1140,26
42.1326,33
42.1512,30
42.1698,30
42.1884,41
42.2069,38
42.2255,30
42.2441,21
42.2627,22
42.2812,32
42.2998,23
42.3184,18
42.3370,24
42.3555,29
42.3741,16
42.3927,37
42.4113,28
42.4298,32
42.4484,32
42.4670,22
42.4856,24
42.5041,23
42.5227,36
42.5413,35
42.5599,24
42.5784,30
42.5970,27
42.6156,24
42.6342,23
42.6527,31
42.6713,25
42.6899,29
42.7085,25
42.7270,29
42.7456,32
42.7642,25
42.7828,29
42.8013,30
42.8199,35
42.8385,24
42.8571,26
42.8756,21
42.8942,27
42.9128,24
42.9314,20
42.9500,25
42.9685,30
42.9871,26
43.0057,24
43.0243,24
43.0428,18
43.0614,28
43.0800,37
43.0986,34
43.1171,29
43.1357,30
43.1543,33
43.1729,39
43.1914,22
43.2100,31
43.2286,48
43.2472,39
43.2657,39
43.2843,27
43.3029,36
43.3215,28
43.3400,35
43.3586,31
43.3772,39
43.3958,22
43.4143,33
43.4329,37
43.4515,28
43.4701,38
43.4886,50
43.5072,57
43.5258,41
43.5444,34
43.5629,28
43.5815,30
43.6001,24
43.6187,40
43.6372,37
43.6558,35
43.6744,23
43.6930,21
43.7116,30
43.7301,28
43.7487,40
43.7673,24
43.7859,30
43.8044,30
43.8230,27
43.8416,33
43.8602,29
43.8787,24
43.8973,28
43.9159,26
43.9345,23
43.9530,29
43.9716,29
43.9902,18
44.0088,23
44.0273,27
44.0459,38
44.0645,30
44.0831,21
44.1016,24
44.1202,28
44.1388,23
44.1574,22
44.1759,33
44.1945,22
44.2131,25
44.2317,25
44.2502,26
44.2688,23
44.2874,25
44.3060,27
44.3245,26
44.3431,40
44.3617,25
44.3803,31
44.3988,28
44.4174,26
44.4360,28
44.4546,29
44.4732,16
44.4917,24
44.5103,27
44.5289,34
44.5475,27
44.5660,35
44.5846,29
44.6032,23
44.6218,23
44.6403,22
44.6589,28
44.6775,24
44.6961,28
44.7146,24
44.7332,41
44.7518,34
44.7704,24
44.7889,26
44.8075,37
44.8261,30
44.8447,36
44.8632,22
44.8818,22
44.9004,33
44.9190,29
44.9375,21
44.9561,26
44.9747,37
44.9933,21
45.0118,21
45.0304,30
45.0490,21
45.0676,29
45.0861,23
45.1047,25
45.1233,17
45.1419,21
45.1604,33
45.1790,26
45.1976,15
45.2162,25
45.2347,33
45.2533,29
45.2719,23
45.2905,17
45.3091,22
45.3276,25
45.3462,27
45.3648,25
45.3834,20
45.4019,25
45.4205,23
45.4391,26
45.4577,26
45.4762,29
45.4948,20
45.5134,28
45.5320,19
45.5505,24
45.5691,24
45.5877,18
45.6063,27
45.6248,21
45.6434,23
45.6620,22
45.6806,24
45.6991,28
45.7177,32
45.7363,24
45.7549,27
45.7734,30
45.7920,25
45.8106,26
45.8292,13
45.8477,28
45.8663,24
45.8849,27
45.9035,32
45.9220,22
45.9406,25
45.9592,25
45.9778,21
45.9963,26
46.0149,24
46.0335,23
46.0521,19
46.0707,22
46.0892,23
46.1078,35
46.1264,20
46.1450,26
46.1635,20
46.1821,25
46.2007,29
46.2193,19
46.2378,27
46.2564,21
46.2750,20
46.2936,33
46.3121,27
46.3307,20
46.3493,31
46.3679,31
46.3864,25
46.4050,18
46.4236,17
46.4422,30
46.4607,24
46.4793,20
46.4979,25
46.5165,26
46.5350,13
46.5536,28
46.5722,23
46.5908,36
46.6093,33
46.6279,24
46.6465,25
46.6651,26
46.6836,24
46.7022,18
46.7208,29
46.7394,28
46.7579,24
46.7765,26
46.7951,21
46.8137,23
46.8323,24
46.8508,24
46.8694,20
46.8880,24
46.9066,30
46.9251,22
46.9437,19
46.9623,24
46.9809,20
46.9994,29
47.0180,27
47.0366,17
47.0552,17
47.0737,25
47.0923,20
47.1109,21
47.1295,29
47.1480,19
47.1666,27
47.1852,23
47.2038,21
47.2223,27
47.2409,29
47.2595,27
47.2781,20
47.2966,25
47.3152,24
47.3338,25
47.3524,21
47.3709,24
47.3895,15
47.4081,19
47.4267,28
47.4452,23
47.4638,24
47.4824,35
47.5010,20
47.5195,27
47.5381,21
47.5567,24
47.5753,30
47.5939,28
47.6124,32
47.6310,16
47.6496,17
47.6682,21
47.6867,22
47.7053,34
47.7239,27
47.7425,22
47.7610,24
47.7796,26
47.7982,22
47.8168,15
47.8353,23
47.8539,19
47.8725,22
47.8911,28
47.9096,22
47.9282,29
47.9468,27
47.9654,25
47.9839,19
48.0025,14
48.0211,26
48.0397,18
48.0582,30
48.0768,21
48.0954,26
48.1140,25
48.1325,22
48.1511,28
48.1697,19
48.1883,17
48.2068,32
48.2254,19
48.2440,20
48.2626,17
48.2811,22
48.2997,19
48.3183,22
48.3369,18
48.3555,19
48.3740,31
48.3926,16
48.4112,18
48.4298,16
48.4483,32
48.4669,14
48.4855,13
48.5041,25
48.5226,18
48.5412,16
48.5598,31
48.5784,24
48.5969,26
48.6155,24
48.6341,27
48.6527,14
48.6712,24
48.6898,21
48.7084,18
48.7270,27
48.7455,27
48.7641,23
48.7827,29
48.8013,32
48.8198,24
48.8384,18
48.8570,30
48.8756,24
48.8941,30
48.9127,36
48.9313,34
48.9499,42
48.9684,44
48.9870,40
49.0056,36
49.0242,26
49.0427,29
49.0613,21
49.0799,40
49.0985,33
49.1171,29
49.1356,21
49.1542,20
49.1728,19
49.1914,21
49.2099,29
49.2285,27
49.2471,17
49.2657,19
49.2842,17
49.3028,19
49.3214,30
49.3400,20
49.3585,24
49.3771,24
49.3957,19
49.4143,26
49.4328,20
49.4514,25
49.4700,22
49.4886,25
49.5071,22
49.5257,20
49.5443,25
49.5629,27
49.5814,23
49.6000,25
49.6186,21
49.6372,27
49.6557,20
49.6743,22
49.6929,17
49.7115,19
49.7300,21
49.7486,20
49.7672,26
49.7858,27
49.8043,20
49.8229,24
49.8415,14
49.8601,28
49.8786,22
49.8972,23
49.9158,29
49.9344,29
49.9530,16
49.9715,32
49.9901,20
50.0087,17
50.0273,21
50.0458,19
50.0644,17
50.0830,28
50.1016,26
50.1201,20
50.1387,16
50.1573,25
50.1759,24
50.1944,32
50.2130,28
50.2316,27
50.2502,28
50.2687,18
50.2873,37
50.3059,15
50.3245,25
50.3430,17
50.3616,36
50.3802,26
50.3988,27
50.4173,21
50.4359,22
50.4545,24
50.4731,15
50.4916,28
50.5102,24
50.5288,28
50.5474,27
50.5659,17
50.5845,17
50.6031,24
50.6217,24
50.6402,23
50.6588,17
50.6774,18
50.6960,14
50.7146,21
50.7331,16
50.7517,24
50.7703,26
50.7889,21
50.8074,12
50.8260,20
50.8446,18
50.8632,20
50.8817,30
50.9003,22
50.9189,22
50.9375,23
50.9560,15
50.9746,23
50.9932,24
51.0118,29
51.0303,25
51.0489,21
51.0675,21
51.0861,19
51.1046,19
51.1232,23
51.1418,26
51.1604,18
51.1789,26
51.1975,22
51.2161,21
51.2347,14
51.2532,19
51.2718,27
51.2904,18
51.3090,22
51.3275,23
51.3461,23
51.3647,31
51.3833,24
51.4018,25
51.4204,28
51.4390,21
51.4576,26
51.4762,21
51.4947,20
51.5133,22
51.5319,17
51.5505,23
51.5690,19
51.5876,25
51.6062,24
51.6248,22
51.6433,25
51.6619,23
51.6805,18
51.6991,18
51.7176,19
51.7362,17
51.7548,29
51.7734,14
51.7919,22
51.8105,23
51.8291,26
51.8477,26
51.8662,19
51.8848,20
51.9034,18
51.9220,32
51.9405,23
51.9591,18
51.9777,22
51.9963,22
52.0148,25
52.0334,24
52.0520,23
52.0706,21
52.0891,26
52.1077,19
52.1263,19
52.1449,25
52.1634,17
52.1820,23
52.2006,24
52.2192,17
52.2378,18
52.2563,23
52.2749,24
52.2935,24
52.3121,25
52.3306,20
52.3492,23
52.3678,17
52.3864,28
52.4049,27
52.4235,22
52.4421,24
52.4607,23
52.4792,28
52.4978,21
52.5164,24
52.5350,14
52.5535,20
52.5721,32
52.5907,19
52.6093,22
52.6278,30
52.6464,24
52.6650,23
52.6836,15
52.7021,17
52.7207,22
52.7393,24
52.7579,19
52.7764,13
52.7950,24
52.8136,16
52.8322,27
52.8507,26
52.8693,29
52.8879,20
52.9065,24
52.9250,18
52.9436,19
52.9622,31
52.9808,20
52.9994,23
53.0179,19
53.0365,19
53.0551,17
53.0737,22
53.0922,11
53.1108,26
53.1294,15
53.1480,22
53.1665,26
53.1851,29
53.2037,11
53.2223,21
53.2408,13
53.2594,21
53.2780,25
53.2966,22
53.3151,18
53.3337,20
53.3523,25
53.3709,14
53.3894,17
53.4080,20
53.4266,21
53.4452,23
53.4637,22
53.4823,21
53.5009,22
53.5195,18
53.5380,17
53.5566,22
53.5752,21
53.5938,17
53.6123,19
53.6309,19
53.6495,21
53.6681,18
53.6866,24
53.7052,19
53.7238,21
53.7424,20
53.7610,27
53.7795,18
53.7981,17
53.8167,20
53.8353,20
53.8538,24
53.8724,22
53.8910,19
53.9096,18
53.9281,24
53.9467,23
53.9653,35
53.9839,35
54.0024,36
54.0210,23
54.0396,28
54.0582,24
54.0767,19
54.0953,24
54.1139,21
54.1325,34
54.1510,29
54.1696,23
54.1882,21
54.2068,20
54.2253,28
54.2439,16
54.2625,21
54.2811,21
54.2996,22
54.3182,24
54.3368,27
54.3554,21
54.3739,25
54.3925,19
54.4111,32
54.4297,19
54.4482,30
54.4668,23
54.4854,23
54.5040,28
54.5225,20
54.5411,22
54.5597,18
54.5783,20
54.5969,19
54.6154,16
54.6340,25
54.6526,16
54.6712,22
54.6897,21
54.7083,21
54.7269,20
54.7455,23
54.7640,22
54.7826,19
54.8012,30
54.8198,26
54.8383,17
54.8569,17
54.8755,21
54.8941,20
54.9126,17
54.9312,19
54.9498,26
54.9684,19
54.9869,15
55.0055,19
55.0241,24
55.0427,19
55.0612,23
55.0798,24
55.0984,12
55.1170,18
55.1355,19
55.1541,23
55.1727,21
55.1913,21
55.2098,11
55.2284,16
55.2470,19
55.2656,22
55.2841,17
55.3027,25
55.3213,24
55.3399,22
55.3585,21
55.3770,22
55.3956,19
55.4142,24
55.4328,19
55.4513,21
55.4699,20
55.4885,25
55.5071,19
55.5256,30
55.5442,21
55.5628,26
55.5814,22
55.5999,22
55.6185,14
55.6371,16
55.6557,18
55.6742,23
55.6928,17
55.7114,25
55.7300,19
55.7485,14
55.7671,24
55.7857,13
55.8043,27
55.8228,25
55.8414,19
55.8600,19
55.8786,27
55.8971,22
55.9157,21
55.9343,29
55.9529,30
55.9714,28
55.9900,18
56.0086,19
56.0272,16
56.0457,23
56.0643,24
56.0829,19
56.1015,37
56.1201,18
56.1386,26
56.1572,25
56.1758,20
56.1944,19
56.2129,18
56.2315,33
56.2501,25
56.2687,17
56.2872,26
56.3058,25
56.3244,15
56.3430,26
56.3615,23
56.3801,12
56.3987,24
56.4173,21
56.4358,26
56.4544,16
56.4730,23
56.4916,21
56.5101,29
56.5287,27
56.5473,25
56.5659,26
56.5844,23
56.6030,27
56.6216,14
56.6402,13
56.6587,26
56.6773,17
56.6959,24
56.7145,27
56.7330,15
56.7516,15
56.7702,16
56.7888,28
56.8073,19
56.8259,20
56.8445,27
56.8631,20
56.8817,22
56.9002,21
56.9188,17
56.9374,17
56.9560,23
56.9745,29
56.9931,21
57.0117,18
57.0303,25
57.0488,27
57.0674,23
57.0860,28
57.1046,24
57.1231,18
57.1417,13
57.1603,22
57.1789,17
57.1974,19
57.2160,16
57.2346,22
57.2532,21
57.2717,16
57.2903,20
57.3089,20
57.3275,26
57.3460,21
57.3646,19
57.3832,22
57.4018,23
57.4203,17
57.4389,18
57.4575,15
57.4761,21
57.4946,19
57.5132,22
57.5318,18
57.5504,18
57.5689,19
57.5875,12
57.6061,27
57.6247,28
57.6433,19
57.6618,24
57.6804,27
57.6990,27
57.7176,22
57.7361,21
57.7547,23
57.7733,26
57.7919,18
57.8104,23
57.8290,21
57.8476,24
57.8662,23
57.8847,24
57.9033,22
57.9219,19
57.9405,16
57.9590,19
57.9776,24
57.9962,23
58.0148,23
58.0333,21
58.0519,25
58.0705,15
58.0891,24
58.1076,20
58.1262,20
58.1448,21
58.1634,19
58.1819,17
58.2005,25
58.2191,20
58.2377,17
58.2562,18
58.2748,28
58.2934,24
58.3120,23
58.3305,13
58.3491,21
58.3677,25
58.3863,21
58.4049,17
58.4234,17
58.4420,9
58.4606,27
58.4792,16
58.4977,20
58.5163,17
58.5349,15
58.5535,22
58.5720,20
58.5906,20
58.6092,23
58.6278,19
58.6463,21
58.6649,13
58.6835,13
58.7021,19
58.7206,21
58.7392,20
58.7578,22
58.7764,25
58.7949,25
58.8135,17
58.8321,19
58.8507,19
58.8692,19
58.8878,22
58.9064,15
58.9250,19
58.9435,21
58.9621,22
58.9807,28
58.9993,19
59.0178,19
59.0364,15
59.0550,20
59.0736,19
59.0921,22
59.1107,24
59.1293,17
59.1479,16
59.1664,16
59.1850,21
59.2036,16
59.2222,25
59.2408,10
59.2593,15
59.2779,19
59.2965,20
59.3151,21
59.3336,14
59.3522,16
59.3708,19
59.3894,15
59.4079,22
59.4265,20
59.4451,22
59.4637,23
59.4822,17
59.5008,20
59.5194,17
59.5380,11
59.5565,21
59.5751,21
59.5937,22
59.6123,13
59.6308,17
59.6494,17
59.6680,24
59.6866,22
59.7051,21
59.7237,16
59.7423,16
59.7609,25
59.7794,14
59.7980,15
59.8166,21
59.8352,27
59.8537,18
59.8723,17
59.8909,25
59.9095,24
59.9280,18
59.9466,17
59.9652,21
59.9838,16
60.0024,21
