;,2THETA,
5.0000,132
5.0186,128
5.0372,131
5.0557,130
5.0743,143
5.0929,126
5.1115,136
5.1300,128
5.1486,135
5.1672,144
5.1858,134
5.2043,141
5.2229,120
5.2415,130
5.2601,126
5.2786,113
5.2972,116
5.3158,112
5.3344,115
5.3529,125
5.3715,132
5.3901,114
5.4087,124
5.4272,100
5.4458,108
5.4644,107
5.4830,111
5.5015,112
5.5201,111
5.5387,108
5.5573,128
5.5758,98
5.5944,110
5.6130,94
5.6316,106
5.6501,94
5.6687,99
5.6873,130
5.7059,109
5.7244,102
5.7430,115
5.7616,124
5.7802,108
5.7988,108
5.8173,91
5.8359,112
5.8545,96
5.8731,105
5.8916,101
5.9102,115
5.9288,100
5.9474,94
5.9659,117
5.9845,108
6.0031,105
6.0217,102
6.0402,99
6.0588,94
6.0774,118
6.0960,106
6.1145,94
6.1331,95
6.1517,89
6.1703,94
6.1888,92
6.2074,88
6.2260,113
6.2446,103
6.2631,87
6.2817,103
6.3003,95
6.3189,102
6.3374,98
6.3560,108
6.3746,96
6.3932,114
6.4117,97
6.4303,80
6.4489,72
6.4675,100
6.4860,96
6.5046,82
6.5232,74
6.5418,92
6.5604,73
6.5789,85
6.5975,82
6.6161,100
6.6347,82
6.6532,70
6.6718,87
6.6904,88
6.7090,89
6.7275,91
6.7461,83
6.7647,97
6.7833,97
6.8018,87
6.8204,86
6.8390,93
6.8576,98
6.8761,81
6.8947,82
6.9133,78
6.9319,83
6.9504,79
6.9690,85
6.9876,75
7.0062,88
7.0247,78
7.0433,75
7.0619,74
7.0805,75
7.0990,71
7.1176,62
7.1362,79
7.1548,76
7.1733,93
7.1919,82
7.2105,98
7.2291,98
7.2476,89
7.2662,74
7.2848,72
7.3034,87
7.3220,87
7.3405,80
7.3591,64
7.3777,84
7.3963,79
7.4148,85
7.4334,82
7.4520,93
7.4706,64
7.4891,88
7.5077,100
7.5263,96
7.5449,99
7.5634,80
7.5820,103
7.6006,90
7.6192,86
7.6377,88
7.6563,80
7.6749,96
7.6935,90
7.7120,84
7.7306,90
7.7492,95
7.7678,81
7.7863,93
7.8049,96
7.8235,103
7.8421,105
7.8606,86
7.8792,79
7.8978,105
7.9164,105
7.9349,92
7.9535,103
7.9721,85
7.9907,82
8.0092,91
8.0278,92
8.0464,115
8.0650,103
8.0835,91
8.1021,104
8.1207,89
8.1393,91
8.1579,88
8.1764,94
8.1950,86
8.2136,83
8.2322,86
8.2507,80
8.2693,95
8.2879,123
8.3065,90
8.3250,102
8.3436,103
8.3622,106
8.3808,102
8.3993,75
8.4179,82
8.4365,92
8.4551,97
8.4736,102
8.4922,115
8.5108,99
8.5294,97
8.5479,108
8.5665,105
8.5851,91
8.6037,115
8.6222,92
8.6408,101
8.6594,90
8.6780,103
8.6965,87
8.7151,112
8.7337,99
8.7523,86
8.7708,103
8.7894,96
8.8080,98
8.8266,111
8.8451,87
8.8637,120
8.8823,122
8.9009,122
8.9195,109
8.9380,98
8.9566,104
8.9752,98
8.9938,103
9.0123,120
9.0309,97
9.0495,112
9.0681,85
9.0866,105
9.1052,114
9.1238,117
9.1424,101
9.1609,121
9.1795,105
9.1981,109
9.2167,98
9.2352,120
9.2538,122
9.2724,100
9.2910,113
9.3095,106
9.3281,108
9.3467,109
9.3653,110
9.3838,114
9.4024,98
9.4210,112
9.4396,123
9.4581,112
9.4767,99
9.4953,96
9.5139,106
9.5324,131
9.5510,111
9.5696,123
9.5882,102
9.6067,126
9.6253,108
9.6439,120
9.6625,110
9.6811,108
9.6996,107
9.7182,108
9.7368,104
9.7554,115
9.7739,122
9.7925,118
9.8111,134
9.8297,132
9.8482,120
9.8668,118
9.8854,128
9.9040,112
9.9225,108
9.9411,130
9.9597,118
9.9783,117
9.9968,136
10.0154,123
10.0340,120
10.0526,112
10.0711,148
10.0897,100
10.1083,120
10.1269,132
10.1454,115
10.1640,133
10.1826,124
10.2012,100
10.2197,112
10.2383,113
10.2569,113
10.2755,125
10.2940,116
10.3126,120
10.3312,136
10.3498,118
10.3683,132
10.3869,120
10.4055,108
10.4241,118
10.4427,115
10.4612,118
10.4798,124
10.4984,118
10.5170,128
10.5355,114
10.5541,121
10.5727,120
10.5913,105
10.6098,132
10.6284,109
10.6470,114
10.6656,120
10.6841,106
10.7027,120
10.7213,130
10.7399,123
10.7584,120
10.7770,118
10.7956,123
10.8142,132
10.8327,104
10.8513,133
10.8699,126
10.8885,114
10.9070,118
10.9256,107
10.9442,98
10.9628,120
10.9813,122
10.9999,102
11.0185,131
11.0371,134
11.0556,126
11.0742,124
11.0928,127
11.1114,121
11.1299,131
11.1485,103
11.1671,106
11.1857,126
11.2043,113
11.2228,122
11.2414,97
11.2600,112
11.2786,112
11.2971,113
11.3157,96
11.3343,134
11.3529,116
11.3714,127
11.3900,131
11.4086,116
11.4272,128
11.4457,102
11.4643,115
11.4829,111
11.5015,109
11.5200,122
11.5386,113
11.5572,112
11.5758,117
11.5943,134
11.6129,132
11.6315,123
11.6501,108
11.6686,123
11.6872,133
11.7058,106
11.7244,121
11.7429,104
11.7615,123
11.7801,107
11.7987,123
11.8172,130
11.8358,125
11.8544,126
11.8730,110
11.8915,123
11.9101,112
11.9287,119
11.9473,108
11.9659,112
11.9844,101
12.0030,100
12.0216,117
12.0402,105
12.0587,106
12.0773,115
12.0959,113
12.1145,126
12.1330,112
12.1516,108
12.1702,119
12.1888,123
12.2073,135
12.2259,119
12.2445,110
12.2631,101
12.2816,112
12.3002,125
12.3188,103
12.3374,116
12.3559,109
12.3745,106
12.3931,108
12.4117,115
12.4302,115
12.4488,106
12.4674,111
12.4860,110
12.5045,86
12.5231,102
12.5417,99
12.5603,102
12.5788,106
12.5974,97
12.6160,103
12.6346,106
12.6531,94
12.6717,119
12.6903,106
12.7089,105
12.7274,106
12.7460,84
12.7646,119
12.7832,113
12.8018,93
12.8203,105
12.8389,120
12.8575,106
12.8761,101
12.8946,114
12.9132,117
12.9318,116
12.9504,103
12.9689,99
12.9875,102
13.0061,101
13.0247,111
13.0432,119
13.0618,98
13.0804,95
13.0990,112
13.1175,109
13.1361,110
13.1547,110
13.1733,113
13.1918,95
13.2104,103
13.2290,99
13.2476,89
13.2661,97
13.2847,91
13.3033,105
13.3219,82
13.3404,104
13.3590,106
13.3776,96
13.3962,105
13.4147,102
13.4333,110
13.4519,108
13.4705,109
13.4890,96
13.5076,94
13.5262,88
13.5448,108
13.5634,74
13.5819,88
13.6005,112
13.6191,101
13.6377,81
13.6562,76
13.6748,85
13.6934,91
13.7120,94
13.7305,84
13.7491,95
13.7677,106
13.7863,75
13.8048,84
13.8234,92
13.8420,91
13.8606,120
13.8791,82
13.8977,103
13.9163,81
13.9349,88
13.9534,90
13.9720,117
13.9906,86
14.0092,67
14.0277,87
14.0463,83
14.0649,85
14.0835,89
14.1020,94
14.1206,96
14.1392,90
14.1578,112
14.1763,93
14.1949,92
14.2135,88
14.2321,97
14.2506,103
14.2692,89
14.2878,83
14.3064,90
14.3250,103
14.3435,83
14.3621,100
14.3807,84
14.3993,95
14.4178,73
14.4364,96
14.4550,95
14.4736,82
14.4921,77
14.5107,86
14.5293,92
14.5479,94
14.5664,86
14.5850,92
14.6036,104
14.6222,85
14.6407,76
14.6593,86
14.6779,93
14.6965,75
14.7150,88
14.7336,80
14.7522,93
14.7708,85
14.7893,84
14.8079,93
14.8265,77
14.8451,79
14.8636,87
14.8822,92
14.9008,77
14.9194,87
14.9379,78
14.9565,69
14.9751,104
14.9937,68
15.0122,77
15.0308,99
15.0494,91
15.0680,70
15.0866,83
15.1051,83
15.1237,75
15.1423,83
15.1609,89
15.1794,104
15.1980,95
15.2166,91
15.2352,92
15.2537,83
15.2723,78
15.2909,80
15.3095,74
15.3280,90
15.3466,82
15.3652,85
15.3838,79
15.4023,78
15.4209,87
15.4395,72
15.4581,70
15.4766,85
15.4952,69
15.5138,90
15.5324,81
15.5509,88
15.5695,71
15.5881,75
15.6067,76
15.6252,86
15.6438,76
15.6624,77
15.6810,83
15.6995,88
15.7181,85
15.7367,79
15.7553,75
15.7738,95
15.7924,87
15.8110,92
15.8296,75
15.8482,68
15.8667,65
15.8853,96
15.9039,76
15.9225,61
15.9410,84
15.9596,93
15.9782,69
15.9968,87
16.0153,72
16.0339,107
16.0525,85
16.0711,80
16.0896,83
16.1082,84
16.1268,84
16.1454,84
16.1639,84
16.1825,70
16.2011,81
16.2197,83
16.2382,85
16.2568,76
16.2754,97
16.2940,77
16.3125,84
16.3311,82
16.3497,75
16.3683,86
16.3868,85
16.4054,81
16.4240,91
16.4426,70
16.4611,85
16.4797,91
16.4983,82
16.5169,97
16.5354,90
16.5540,84
16.5726,72
16.5912,65
16.6097,67
16.6283,71
16.6469,78
16.6655,86
16.6841,88
16.7026,87
16.7212,78
16.7398,75
16.7584,79
16.7769,66
16.7955,64
16.8141,97
16.8327,78
16.8512,77
16.8698,88
16.8884,84
16.9070,74
16.9255,75
16.9441,77
16.9627,69
16.9813,71
16.9998,84
17.0184,64
17.0370,86
17.0556,99
17.0741,74
17.0927,78
17.1113,65
17.1299,89
17.1484,72
17.1670,83
17.1856,69
17.2042,93
17.2227,79
17.2413,81
17.2599,71
17.2785,78
17.2970,83
17.3156,64
17.3342,85
17.3528,91
17.3713,80
17.3899,74
17.4085,80
17.4271,65
17.4457,76
17.4642,90
17.4828,67
17.5014,66
17.5200,69
17.5385,51
17.5571,69
17.5757,64
17.5943,76
17.6128,67
17.6314,67
17.6500,81
17.6686,80
17.6871,96
17.7057,84
17.7243,77
17.7429,81
17.7614,78
17.7800,82
17.7986,87
17.8172,92
17.8357,86
17.8543,103
17.8729,81
17.8915,75
17.9100,100
17.9286,72
17.9472,88
17.9658,77
17.9843,83
18.0029,72
18.0215,79
18.0401,68
18.0586,76
18.0772,81
18.0958,94
18.1144,91
18.1329,88
18.1515,81
18.1701,87
18.1887,81
18.2073,69
18.2258,72
18.2444,80
18.2630,104
18.2816,76
18.3001,97
18.3187,79
18.3373,84
18.3559,72
18.3744,83
18.3930,96
18.4116,79
18.4302,85
18.4487,68
18.4673,86
18.4859,83
18.5045,89
18.5230,75
18.5416,85
18.5602,84
18.5788,79
18.5973,77
18.6159,79
18.6345,84
18.6531,91
18.6716,85
18.6902,87
18.7088,73
18.7274,84
18.7459,80
18.7645,86
18.7831,90
18.8017,86
18.8202,77
18.8388,96
18.8574,81
18.8760,70
18.8945,74
18.9131,76
18.9317,83
18.9503,65
18.9689,93
18.9874,70
19.0060,84
19.0246,100
19.0432,80
19.0617,89
19.0803,84
19.0989,90
19.1175,81
19.1360,94
19.1546,86
19.1732,92
19.1918,84
19.2103,72
19.2289,79
19.2475,81
19.2661,92
19.2846,78
19.3032,97
19.3218,71
19.3404,86
19.3589,82
19.3775,86
19.3961,80
19.4147,97
19.4332,88
19.4518,76
19.4704,93
19.4890,89
19.5075,80
19.5261,93
19.5447,98
19.5633,69
19.5818,96
19.6004,87
19.6190,81
19.6376,92
19.6561,81
19.6747,95
19.6933,91
19.7119,78
19.7305,74
19.7490,73
19.7676,99
19.7862,96
19.8048,86
19.8233,85
19.8419,100
19.8605,75
19.8791,93
19.8976,82
19.9162,93
19.9348,95
19.9534,88
19.9719,96
19.9905,90
20.0091,87
20.0277,105
20.0462,100
20.0648,88
20.0834,79
20.1020,86
20.1205,89
20.1391,111
20.1577,89
20.1763,93
20.1948,93
20.2134,93
20.2320,97
20.2506,91
20.2691,94
20.2877,91
20.3063,83
20.3249,87
20.3434,88
20.3620,98
20.3806,98
20.3992,96
20.4177,99
20.4363,92
20.4549,85
20.4735,95
20.4921,102
20.5106,90
20.5292,98
20.5478,106
20.5664,91
20.5849,94
20.6035,86
20.6221,81
20.6407,76
20.6592,93
20.6778,97
20.6964,80
20.7150,102
20.7335,109
20.7521,94
20.7707,99
20.7893,99
20.8078,100
20.8264,105
20.8450,100
20.8636,91
20.8821,91
20.9007,108
20.9193,103
20.9379,88
20.9564,99
20.9750,101
20.9936,88
21.0122,83
21.0307,102
21.0493,87
21.0679,118
21.0865,125
21.1050,89
21.1236,105
21.1422,106
21.1608,130
21.1793,142
21.1979,146
21.2165,146
21.2351,169
21.2537,166
21.2722,152
21.2908,136
21.3094,161
21.3280,166
21.3465,244
21.3651,269
21.3837,206
21.4023,187
21.4208,182
21.4394,127
21.4580,119
21.4766,98
21.4951,106
21.5137,89
21.5323,103
21.5509,97
21.5694,95
21.5880,102
21.6066,91
21.6252,92
21.6437,102
21.6623,88
21.6809,96
21.6995,99
21.7180,108
21.7366,87
21.7552,91
21.7738,94
21.7923,98
21.8109,83
21.8295,89
21.8481,80
21.8666,100
21.8852,101
21.9038,107
21.9224,91
21.9409,104
21.9595,117
21.9781,110
21.9967,112
22.0152,99
22.0338,93
22.0524,103
22.0710,119
22.0896,99
22.1081,94
22.1267,99
22.1453,113
22.1639,89
22.1824,90
22.2010,91
22.2196,80
22.2382,98
22.2567,98
22.2753,99
22.2939,85
22.3125,86
22.3310,102
22.3496,115
22.3682,105
22.3868,105
22.4053,106
22.4239,104
22.4425,101
22.4611,107
22.4796,82
22.4982,81
22.5168,89
22.5354,118
22.5539,99
22.5725,106
22.5911,105
22.6097,97
22.6282,101
22.6468,116
22.6654,91
22.6840,85
22.7025,93
22.7211,95
22.7397,106
22.7583,78
22.7768,91
22.7954,87
22.8140,101
22.8326,89
22.8512,101
22.8697,101
22.8883,82
22.9069,101
22.9255,90
22.9440,105
22.9626,112
22.9812,91
22.9998,100
23.0183,94
23.0369,87
23.0555,97
23.0741,96
23.0926,99
23.1112,116
23.1298,106
23.1484,113
23.1669,103
23.1855,99
23.2041,94
23.2227,98
23.2412,90
23.2598,81
23.2784,98
23.2970,84
23.3155,94
23.3341,86
23.3527,102
23.3713,91
23.3898,92
23.4084,112
23.4270,99
23.4456,99
23.4641,94
23.4827,92
23.5013,115
23.5199,100
23.5384,90
23.5570,92
23.5756,93
23.5942,92
23.6128,85
23.6313,104
23.6499,102
23.6685,101
23.6871,123
23.7056,107
23.7242,81
23.7428,104
23.7614,104
23.7799,107
23.7985,107
23.8171,100
23.8357,82
23.8542,104
23.8728,96
23.8914,89
23.9100,97
23.9285,98
23.9471,114
23.9657,88
23.9843,103
24.0028,99
24.0214,108
24.0400,94
24.0586,104
24.0771,98
24.0957,101
24.1143,78
24.1329,111
24.1514,114
24.1700,98
24.1886,108
24.2072,103
24.2257,118
24.2443,115
24.2629,106
24.2815,123
24.3000,92
24.3186,121
24.3372,107
24.3558,100
24.3744,99
24.3929,99
24.4115,91
24.4301,113
24.4487,81
24.4672,85
24.4858,99
24.5044,97
24.5230,112
24.5415,92
24.5601,92
24.5787,101
24.5973,90
24.6158,97
24.6344,99
24.6530,104
24.6716,106
24.6901,76
24.7087,99
24.7273,88
24.7459,101
24.7644,96
24.7830,92
24.8016,93
24.8202,101
24.8387,99
24.8573,88
24.8759,102
24.8945,103
24.9130,91
24.9316,99
24.9502,103
24.9688,85
24.9873,87
25.0059,114
25.0245,92
25.0431,108
25.0616,91
25.0802,87
25.0988,103
25.1174,105
25.1360,101
25.1545,89
25.1731,95
25.1917,107
25.2103,89
25.2288,93
25.2474,95
25.2660,97
25.2846,118
25.3031,71
25.3217,94
25.3403,98
25.3589,90
25.3774,117
25.3960,101
25.4146,107
25.4332,87
25.4517,96
25.4703,101
25.4889,99
25.5075,90
25.5260,91
25.5446,100
25.5632,94
25.5818,118
25.6003,81
25.6189,83
25.6375,88
25.6561,101
25.6746,100
25.6932,98
25.7118,104
25.7304,115
25.7489,77
25.7675,102
25.7861,93
25.8047,97
25.8232,94
25.8418,89
25.8604,92
25.8790,92
25.8976,115
25.9161,89
25.9347,99
25.9533,90
25.9719,92
25.9904,96
26.0090,99
26.0276,92
26.0462,91
26.0647,98
26.0833,95
26.1019,95
26.1205,113
26.1390,101
26.1576,89
26.1762,88
26.1948,75
26.2133,97
26.2319,105
26.2505,88
26.2691,119
26.2876,100
26.3062,94
26.3248,99
26.3434,72
26.3619,96
26.3805,83
26.3991,100
26.4177,80
26.4362,95
26.4548,106
26.4734,107
26.4920,87
26.5105,82
26.5291,95
26.5477,114
26.5663,82
26.5848,94
26.6034,97
26.6220,87
26.6406,102
26.6591,92
26.6777,87
26.6963,79
26.7149,97
26.7335,90
26.7520,92
26.7706,92
26.7892,97
26.8078,82
26.8263,98
26.8449,102
26.8635,110
26.8821,99
26.9006,93
26.9192,94
26.9378,90
26.9564,89
26.9749,96
26.9935,93
27.0121,107
27.0307,88
27.0492,81
27.0678,98
27.0864,120
27.1050,97
27.1235,96
27.1421,103
27.1607,91
27.1793,107
27.1978,123
27.2164,118
27.2350,110
27.2536,88
27.2721,109
27.2907,110
27.3093,104
27.3279,78
27.3464,89
27.3650,105
27.3836,90
27.4022,91
27.4207,94
27.4393,98
27.4579,82
27.4765,79
27.4951,97
27.5136,97
27.5322,89
27.5508,85
27.5694,102
27.5879,108
27.6065,84
27.6251,104
27.6437,82
27.6622,91
27.6808,72
27.6994,77
27.7180,102
27.7365,85
27.7551,88
27.7737,77
27.7923,95
27.8108,77
27.8294,87
27.8480,94
27.8666,85
27.8851,87
27.9037,87
27.9223,103
27.9409,76
27.9594,85
27.9780,91
27.9966,86
28.0152,98
28.0337,80
28.0523,90
28.0709,79
28.0895,71
28.1080,90
28.1266,106
28.1452,91
28.1638,97
28.1823,97
28.2009,92
28.2195,93
28.2381,75
28.2567,82
28.2752,103
28.2938,79
28.3124,100
28.3310,76
28.3495,71
28.3681,97
28.3867,84
28.4053,87
28.4238,78
28.4424,90
28.4610,74
28.4796,87
28.4981,89
28.5167,79
28.5353,103
28.5539,73
28.5724,78
28.5910,93
28.6096,87
28.6282,87
28.6467,75
28.6653,85
28.6839,94
28.7025,73
28.7210,81
28.7396,76
28.7582,90
28.7768,73
28.7953,82
28.8139,78
28.8325,96
28.8511,85
28.8696,83
28.8882,70
28.9068,73
28.9254,90
28.9439,84
28.9625,74
28.9811,85
28.9997,80
29.0183,82
29.0368,89
29.0554,84
29.0740,72
29.0926,91
29.1111,80
29.1297,77
29.1483,82
29.1669,94
29.1854,89
29.2040,73
29.2226,97
29.2412,95
29.2597,80
29.2783,84
29.2969,75
29.3155,90
29.3340,86
29.3526,93
29.3712,72
29.3898,78
29.4083,79
29.4269,79
29.4455,78
29.4641,101
29.4826,72
29.5012,84
29.5198,77
29.5384,75
29.5569,82
29.5755,77
29.5941,64
29.6127,87
29.6312,68
29.6498,64
29.6684,86
29.6870,76
29.7055,89
29.7241,82
29.7427,88
29.7613,65
29.7799,73
29.7984,87
29.8170,74
29.8356,86
29.8542,79
29.8727,78
29.8913,79
29.9099,76
29.9285,73
29.9470,56
29.9656,75
29.9842,76
30.0028,76
30.0213,75
30.0399,79
30.0585,76
30.0771,75
30.0956,76
30.1142,77
30.1328,88
30.1514,81
30.1699,84
30.1885,76
30.2071,88
30.2257,76
30.2442,96
30.2628,97
30.2814,83
30.3000,89
30.3185,74
30.3371,96
30.3557,120
30.3743,139
30.3928,154
30.4114,153
30.4300,108
30.4486,119
30.4671,130
30.4857,92
30.5043,101
30.5229,89
30.5415,79
30.5600,66
30.5786,110
30.5972,82
30.6158,74
30.6343,77
30.6529,87
30.6715,73
30.6901,75
30.7086,76
30.7272,61
30.7458,66
30.7644,87
30.7829,72
30.8015,68
30.8201,73
30.8387,70
30.8572,73
30.8758,76
30.8944,58
30.9130,62
30.9315,64
30.9501,66
30.9687,69
30.9873,76
31.0058,72
31.0244,80
31.0430,60
31.0616,77
31.0801,72
31.0987,68
31.1173,63
31.1359,66
31.1544,65
31.1730,72
31.1916,64
31.2102,58
31.2287,52
31.2473,67
31.2659,84
31.2845,55
31.3030,63
31.3216,52
31.3402,65
31.3588,72
31.3774,71
31.3959,58
31.4145,46
31.4331,76
31.4517,56
31.4702,71
31.4888,74
31.5074,60
31.5260,69
31.5445,70
31.5631,71
31.5817,61
31.6003,70
31.6188,59
31.6374,66
31.6560,74
31.6746,51
31.6931,63
31.7117,67
31.7303,64
31.7489,72
31.7674,54
31.7860,63
31.8046,67
31.8232,65
31.8417,55
31.8603,59
31.8789,77
31.8975,53
31.9160,73
31.9346,62
31.9532,78
31.9718,56
31.9903,69
32.0089,76
32.0275,60
32.0461,56
32.0646,68
32.0832,81
32.1018,62
32.1204,72
32.1390,66
32.1575,60
32.1761,64
32.1947,71
32.2133,73
32.2318,73
32.2504,65
32.2690,63
32.2876,56
32.3061,71
32.3247,69
32.3433,62
32.3619,70
32.3804,64
32.3990,70
32.4176,81
32.4362,74
32.4547,81
32.4733,72
32.4919,70
32.5105,78
32.5290,73
32.5476,69
32.5662,65
32.5848,77
32.6033,71
32.6219,73
32.6405,67
32.6591,81
32.6776,65
32.6962,64
32.7148,69
32.7334,60
32.7519,56
32.7705,67
32.7891,55
32.8077,57
32.8262,71
32.8448,48
32.8634,64
32.8820,64
32.9006,70
32.9191,58
32.9377,69
32.9563,77
32.9749,68
32.9934,65
33.0120,54
33.0306,62
33.0492,54
33.0677,69
33.0863,86
33.1049,53
33.1235,66
33.1420,61
33.1606,66
33.1792,71
33.1978,68
33.2163,69
33.2349,71
33.2535,54
33.2721,72
33.2906,60
33.3092,74
33.3278,50
33.3464,57
33.3649,71
33.3835,61
33.4021,65
33.4207,47
33.4392,62
33.4578,54
33.4764,58
33.4950,55
33.5135,61
33.5321,60
33.5507,67
33.5693,54
33.5878,54
33.6064,62
33.6250,46
33.6436,57
33.6622,49
33.6807,56
33.6993,65
33.7179,55
33.7365,62
33.7550,72
33.7736,54
33.7922,56
33.8108,54
33.8293,62
33.8479,56
33.8665,57
33.8851,47
33.9036,65
33.9222,70
33.9408,55
33.9594,63
33.9779,50
33.9965,62
34.0151,48
34.0337,56
34.0522,59
34.0708,41
34.0894,57
34.1080,47
34.1265,72
34.1451,60
34.1637,57
34.1823,54
34.2008,49
34.2194,63
34.2380,56
34.2566,54
34.2751,60
34.2937,64
34.3123,59
34.3309,46
34.3494,74
34.3680,49
34.3866,48
34.4052,52
34.4238,58
34.4423,70
34.4609,65
34.4795,57
34.4981,49
34.5166,77
34.5352,66
34.5538,61
34.5724,63
34.5909,65
34.6095,71
34.6281,68
34.6467,55
34.6652,70
34.6838,67
34.7024,62
34.7210,73
34.7395,57
34.7581,83
34.7767,82
34.7953,65
34.8138,58
34.8324,78
34.8510,75
34.8696,78
34.8881,51
34.9067,76
34.9253,57
34.9439,63
34.9624,55
34.9810,49
34.9996,54
35.0182,59
35.0367,62
35.0553,51
35.0739,45
35.0925,66
35.1110,66
35.1296,47
35.1482,45
35.1668,49
35.1854,49
35.2039,51
35.2225,51
35.2411,56
35.2597,46
35.2782,47
35.2968,46
35.3154,48
35.3340,44
35.3525,50
35.3711,47
35.3897,61
35.4083,43
35.4268,47
35.4454,42
35.4640,50
35.4826,48
35.5011,64
35.5197,49
35.5383,46
35.5569,39
35.5754,44
35.5940,53
35.6126,65
35.6312,43
35.6497,54
35.6683,43
35.6869,49
35.7055,40
35.7240,50
35.7426,55
35.7612,54
35.7798,54
35.7983,64
35.8169,50
35.8355,43
35.8541,50
35.8726,57
35.8912,55
35.9098,50
35.9284,44
35.9469,40
35.9655,42
35.9841,45
36.0027,38
36.0213,56
36.0398,50
36.0584,48
36.0770,52
36.0956,51
36.1141,49
36.1327,44
36.1513,46
36.1699,50
36.1884,45
36.2070,41
36.2256,65
36.2442,45
36.2627,50
36.2813,48
36.2999,38
36.3185,41
36.3370,62
36.3556,51
36.3742,63
36.3928,42
36.4113,46
36.4299,51
36.4485,45
36.4671,51
36.4856,52
36.5042,40
36.5228,51
36.5414,47
36.5599,39
36.5785,54
36.5971,52
36.6157,50
36.6342,43
36.6528,45
36.6714,45
36.6900,44
36.7085,51
36.7271,58
36.7457,38
36.7643,46
36.7829,44
36.8014,39
36.8200,49
36.8386,52
36.8572,56
36.8757,40
36.8943,42
36.9129,68
36.9315,38
36.9500,38
36.9686,47
36.9872,49
37.0058,41
37.0243,43
37.0429,46
37.0615,49
37.0801,39
37.0986,43
37.1172,55
37.1358,49
37.1544,38
37.1729,43
37.1915,50
37.2101,40
37.2287,50
37.2472,45
37.2658,55
37.2844,45
37.3030,46
37.3215,53
37.3401,58
37.3587,45
37.3773,51
37.3958,55
37.4144,65
37.4330,69
37.4516,64
37.4701,72
37.4887,54
37.5073,56
37.5259,51
37.5445,65
37.5630,61
37.5816,50
37.6002,50
37.6188,53
37.6373,50
37.6559,39
37.6745,40
37.6931,47
37.7116,47
37.7302,39
37.7488,45
37.7674,40
37.7859,46
37.8045,44
37.8231,53
37.8417,41
37.8602,41
37.8788,65
37.8974,43
37.9160,47
37.9345,36
37.9531,49
37.9717,34
37.9903,43
38.0088,43
38.0274,39
38.0460,42
38.0646,49
38.0831,34
38.1017,50
38.1203,44
38.1389,45
38.1574,50
38.1760,60
38.1946,47
38.2132,47
38.2317,51
38.2503,43
38.2689,38
38.2875,34
38.3061,30
38.3246,35
38.3432,54
38.3618,44
38.3804,43
38.3989,44
38.4175,44
38.4361,43
38.4547,44
38.4732,56
38.4918,39
38.5104,62
38.5290,24
38.5475,38
38.5661,38
38.5847,51
38.6033,39
38.6218,48
38.6404,39
38.6590,46
38.6776,47
38.6961,39
38.7147,41
38.7333,48
38.7519,45
38.7704,40
38.7890,36
38.8076,40
38.8262,42
38.8447,32
38.8633,50
38.8819,50
38.9005,36
38.9190,40
38.9376,37
38.9562,41
38.9748,44
38.9933,38
39.0119,36
39.0305,46
39.0491,47
39.0677,43
39.0862,48
39.1048,42
39.1234,44
39.1420,48
39.1605,41
39.1791,47
39.1977,40
39.2163,55
39.2348,27
39.2534,42
39.2720,39
39.2906,42
39.3091,47
39.3277,48
39.3463,58
39.3649,36
39.3834,53
39.4020,32
39.4206,43
39.4392,46
39.4577,40
39.4763,32
39.4949,40
39.5135,42
39.5320,46
39.5506,44
39.5692,30
39.5878,49
39.6063,41
39.6249,46
39.6435,30
39.6621,37
39.6806,45
39.6992,40
39.7178,43
39.7364,45
39.7549,39
39.7735,22
39.7921,41
39.8107,43
39.8293,28
39.8478,41
39.8664,37
39.8850,41
39.9036,39
39.9221,41
39.9407,31
39.9593,33
39.9779,43
39.9964,49
40.0150,33
40.0336,36
40.0522,42
40.0707,46
40.0893,51
40.1079,57
40.1265,49
40.1450,43
40.1636,31
40.1822,38
40.2008,43
40.2193,36
40.2379,32
40.2565,40
40.2751,37
40.2936,31
40.3122,41
40.3308,39
40.3494,27
40.3679,39
40.3865,43
40.4051,45
40.4237,35
40.4422,45
40.4608,33
40.4794,32
40.4980,46
40.5165,38
40.5351,44
40.5537,30
40.5723,41
40.5908,41
40.6094,26
40.6280,43
40.6466,38
40.6652,44
40.6837,37
40.7023,34
40.7209,44
40.7395,37
40.7580,35
40.7766,40
40.7952,36
40.8138,40
40.8323,40
40.8509,40
40.8695,29
40.8881,34
40.9066,45
40.9252,38
40.9438,46
40.9624,32
40.9809,46
40.9995,44
41.0181,44
41.0367,33
41.0552,35
41.0738,41
41.0924,42
41.1110,39
41.1295,38
41.1481,30
41.1667,38
41.1853,30
41.2038,37
41.2224,32
41.2410,39
41.2596,45
41.2781,23
41.2967,44
41.3153,42
41.3339,47
41.3524,43
41.3710,41
41.3896,43
41.4082,43
41.4268,43
41.4453,31
41.4639,35
41.4825,45
41.5011,45
41.5196,38
41.5382,51
41.5568,34
41.5754,30
41.5939,38
41.6125,33
41.6311,47
41.6497,32
41.6682,28
41.6868,34
41.7054,40
41.7240,55
41.7425,45
41.7611,32
41.7797,36
41.7983,30
41.8168,44
41.8354,31
41.8540,37
41.8726,30
41.8911,34
41.9097,41
41.9283,44
41.9469,46
41.9654,37
41.9840,44
42.0026,29
42.0212,38
42.0397,30
42.0583,39
42.0769,33
42.0955,34
42.1140,34
42.1326,30
42.1512,40
42.1698,41
42.1884,32
42.2069,39
42.2255,23
42.2441,35
42.2627,37
42.2812,35
42.2998,42
42.3184,56
42.3370,37
42.3555,41
42.3741,30
42.3927,41
42.4113,31
42.4298,38
42.4484,40
42.4670,38
42.4856,44
42.5041,37
42.5227,36
42.5413,33
42.5599,33
42.5784,36
42.5970,31
42.6156,45
42.6342,37
42.6527,31
42.6713,43
42.6899,26
42.7085,39
42.7270,43
42.7456,36
42.7642,30
42.7828,41
42.8013,30
42.8199,34
42.8385,34
42.8571,23
42.8756,45
42.8942,24
42.9128,28
42.9314,43
42.9500,34
42.9685,45
42.9871,44
43.0057,32
43.0243,37
43.0428,39
43.0614,36
43.0800,38
43.0986,36
43.1171,36
43.1357,34
43.1543,28
43.1729,34
43.1914,44
43.2100,43
43.2286,42
43.2472,42
43.2657,47
43.2843,43
43.3029,37
43.3215,39
43.3400,33
43.3586,50
43.3772,31
43.3958,22
43.4143,58
43.4329,30
43.4515,35
43.4701,53
43.4886,64
43.5072,61
43.5258,51
43.5444,53
43.5629,48
43.5815,41
43.6001,45
43.6187,55
43.6372,52
43.6558,46
43.6744,37
43.6930,31
43.7116,29
43.7301,35
43.7487,36
43.7673,38
43.7859,38
43.8044,36
43.8230,33
43.8416,27
43.8602,43
43.8787,44
43.8973,34
43.9159,39
43.9345,35
43.9530,34
43.9716,31
43.9902,33
44.0088,30
44.0273,27
44.0459,34
44.0645,49
44.0831,26
44.1016,33
44.1202,41
44.1388,40
44.1574,32
44.1759,44
44.1945,26
44.2131,29
44.2317,47
44.2502,37
44.2688,43
44.2874,39
44.3060,25
44.3245,46
44.3431,30
44.3617,44
44.3803,33
44.3988,32
44.4174,36
44.4360,45
44.4546,30
44.4732,26
44.4917,40
44.5103,37
44.5289,48
44.5475,33
44.5660,32
44.5846,42
44.6032,37
44.6218,33
44.6403,43
44.6589,40
44.6775,41
44.6961,30
44.7146,47
44.7332,39
44.7518,36
44.7704,33
44.7889,48
44.8075,34
44.8261,38
44.8447,38
44.8632,31
44.8818,32
44.9004,32
44.9190,40
44.9375,41
44.9561,29
44.9747,36
44.9933,37
45.0118,34
45.0304,35
45.0490,38
45.0676,32
45.0861,32
45.1047,32
45.1233,41
45.1419,29
45.1604,37
45.1790,37
45.1976,36
45.2162,42
45.2347,35
45.2533,33
45.2719,40
45.2905,23
45.3091,32
45.3276,45
45.3462,43
45.3648,30
45.3834,39
45.4019,35
45.4205,40
45.4391,21
45.4577,34
45.4762,29
45.4948,30
45.5134,37
45.5320,29
45.5505,32
45.5691,34
45.5877,25
45.6063,28
45.6248,32
45.6434,30
45.6620,29
45.6806,39
45.6991,28
45.7177,37
45.7363,39
45.7549,25
45.7734,30
45.7920,27
45.8106,25
45.8292,29
45.8477,34
45.8663,49
45.8849,37
45.9035,42
45.9220,33
45.9406,27
45.9592,37
45.9778,32
45.9963,35
46.0149,32
46.0335,32
46.0521,30
46.0707,33
46.0892,32
46.1078,44
46.1264,43
46.1450,31
46.1635,26
46.1821,42
46.2007,34
46.2193,36
46.2378,28
46.2564,27
46.2750,30
46.2936,25
46.3121,21
46.3307,25
46.3493,37
46.3679,35
46.3864,33
46.4050,39
46.4236,38
46.4422,40
46.4607,38
46.4793,31
46.4979,30
46.5165,23
46.5350,35
46.5536,37
46.5722,29
46.5908,28
46.6093,36
46.6279,37
46.6465,35
46.6651,34
46.6836,34
46.7022,34
46.7208,33
46.7394,31
46.7579,46
46.7765,41
46.7951,21
46.8137,28
46.8323,22
46.8508,30
46.8694,34
46.8880,24
46.9066,34
46.9251,34
46.9437,39
46.9623,30
46.9809,25
46.9994,34
47.0180,42
47.0366,31
47.0552,25
47.0737,24
47.0923,22
47.1109,26
47.1295,36
47.1480,31
47.1666,29
47.1852,31
47.2038,41
47.2223,30
47.2409,35
47.2595,31
47.2781,28
47.2966,24
47.3152,25
47.3338,36
47.3524,36
47.3709,25
47.3895,34
47.4081,49
47.4267,39
47.4452,32
47.4638,25
47.4824,27
47.5010,31
47.5195,35
47.5381,27
47.5567,32
47.5753,35
47.5939,35
47.6124,33
47.6310,32
47.6496,27
47.6682,30
47.6867,25
47.7053,39
47.7239,28
47.7425,31
47.7610,36
47.7796,35
47.7982,26
47.8168,34
47.8353,38
47.8539,30
47.8725,25
47.8911,35
47.9096,34
47.9282,31
47.9468,41
47.9654,33
47.9839,31
48.0025,41
48.0211,41
48.0397,28
48.0582,30
48.0768,43
48.0954,26
48.1140,29
48.1325,27
48.1511,31
48.1697,29
48.1883,29
48.2068,38
48.2254,31
48.2440,33
48.2626,31
48.2811,35
48.2997,30
48.3183,31
48.3369,27
48.3555,32
48.3740,29
48.3926,28
48.4112,27
48.4298,38
48.4483,27
48.4669,23
48.4855,36
48.5041,27
48.5226,39
48.5412,33
48.5598,32
48.5784,43
48.5969,31
48.6155,24
48.6341,37
48.6527,27
48.6712,31
48.6898,34
48.7084,45
48.7270,42
48.7455,33
48.7641,35
48.7827,27
48.8013,35
48.8198,40
48.8384,30
48.8570,38
48.8756,30
48.8941,35
48.9127,38
48.9313,54
48.9499,53
48.9684,62
48.9870,49
49.0056,32
49.0242,40
49.0427,41
49.0613,39
49.0799,43
49.0985,58
49.1171,35
49.1356,39
49.1542,33
49.1728,28
49.1914,37
49.2099,50
49.2285,31
49.2471,32
49.2657,40
49.2842,32
49.3028,26
49.3214,24
49.3400,34
49.3585,27
49.3771,26
49.3957,35
49.4143,19
49.4328,32
49.4514,31
49.4700,27
49.4886,25
49.5071,31
49.5257,37
49.5443,32
49.5629,25
49.5814,26
49.6000,28
49.6186,28
49.6372,37
49.6557,29
49.6743,30
49.6929,31
49.7115,30
49.7300,27
49.7486,31
49.7672,32
49.7858,31
49.8043,24
49.8229,30
49.8415,28
49.8601,36
49.8786,31
49.8972,32
49.9158,28
49.9344,26
49.9530,26
49.9715,26
49.9901,38
50.0087,27
50.0273,28
50.0458,22
50.0644,35
50.0830,32
50.1016,32
50.1201,28
50.1387,32
50.1573,28
50.1759,42
50.1944,37
50.2130,19
50.2316,28
50.2502,30
50.2687,30
50.2873,24
50.3059,31
50.3245,34
50.3430,29
50.3616,29
50.3802,37
50.3988,39
50.4173,25
50.4359,28
50.4545,30
50.4731,15
50.4916,30
50.5102,27
50.5288,29
50.5474,34
50.5659,40
50.5845,40
50.6031,32
50.6217,37
50.6402,33
50.6588,29
50.6774,23
50.6960,24
50.7146,29
50.7331,32
50.7517,28
50.7703,21
50.7889,22
50.8074,35
50.8260,29
50.8446,26
50.8632,23
50.8817,34
50.9003,31
50.9189,16
50.9375,24
50.9560,31
50.9746,35
50.9932,32
51.0118,37
51.0303,24
51.0489,28
51.0675,22
51.0861,22
51.1046,24
51.1232,33
51.1418,40
51.1604,33
51.1789,38
51.1975,29
51.2161,30
51.2347,27
51.2532,16
51.2718,22
51.2904,38
51.3090,30
51.3275,20
51.3461,27
51.3647,46
51.3833,34
51.4018,37
51.4204,30
51.4390,34
51.4576,31
51.4762,28
51.4947,36
51.5133,42
51.5319,33
51.5505,34
51.5690,26
51.5876,31
51.6062,25
51.6248,35
51.6433,35
51.6619,24
51.6805,29
51.6991,25
51.7176,17
51.7362,32
51.7548,30
51.7734,29
51.7919,22
51.8105,38
51.8291,42
51.8477,25
51.8662,30
51.8848,21
51.9034,32
51.9220,19
51.9405,29
51.9591,33
51.9777,32
51.9963,35
52.0148,41
52.0334,28
52.0520,23
52.0706,27
52.0891,32
52.1077,28
52.1263,28
52.1449,27
52.1634,27
52.1820,20
52.2006,31
52.2192,25
52.2378,39
52.2563,35
52.2749,28
52.2935,19
52.3121,27
52.3306,32
52.3492,24
52.3678,23
52.3864,36
52.4049,25
52.4235,18
52.4421,34
52.4607,24
52.4792,33
52.4978,27
52.5164,24
52.5350,28
52.5535,30
52.5721,38
52.5907,31
52.6093,37
52.6278,24
52.6464,40
52.6650,36
52.6836,37
52.7021,29
52.7207,29
52.7393,32
52.7579,32
52.7764,31
52.7950,27
52.8136,30
52.8322,23
52.8507,19
52.8693,30
52.8879,15
52.9065,24
52.9250,33
52.9436,29
52.9622,31
52.9808,30
52.9994,28
53.0179,35
53.0365,36
53.0551,32
53.0737,30
53.0922,29
53.1108,32
53.1294,37
53.1480,34
53.1665,39
53.1851,28
53.2037,27
53.2223,26
53.2408,24
53.2594,27
53.2780,25
53.2966,33
53.3151,25
53.3337,32
53.3523,35
53.3709,22
53.3894,25
53.4080,31
53.4266,22
53.4452,36
53.4637,32
53.4823,28
53.5009,32
53.5195,32
53.5380,26
53.5566,37
53.5752,25
53.5938,26
53.6123,30
53.6309,28
53.6495,34
53.6681,28
53.6866,29
53.7052,26
53.7238,22
53.7424,31
53.7610,40
53.7795,30
53.7981,33
53.8167,31
53.8353,38
53.8538,23
53.8724,24
53.8910,32
53.9096,39
53.9281,29
53.9467,29
53.9653,32
53.9839,37
54.0024,41
54.0210,43
54.0396,27
54.0582,36
54.0767,36
54.0953,32
54.1139,46
54.1325,36
54.1510,39
54.1696,38
54.1882,31
54.2068,33
54.2253,34
54.2439,23
54.2625,34
54.2811,30
54.2996,29
54.3182,30
54.3368,33
54.3554,36
54.3739,29
54.3925,26
54.4111,35
54.4297,23
54.4482,19
54.4668,24
54.4854,28
54.5040,34
54.5225,34
54.5411,27
54.5597,28
54.5783,31
54.5969,26
54.6154,28
54.6340,31
54.6526,20
54.6712,24
54.6897,38
54.7083,34
54.7269,29
54.7455,27
54.7640,35
54.7826,32
54.8012,33
54.8198,19
54.8383,29
54.8569,27
54.8755,25
54.8941,26
54.9126,29
54.9312,27
54.9498,27
54.9684,34
54.9869,29
55.0055,31
55.0241,31
55.0427,33
55.0612,23
55.0798,20
55.0984,25
55.1170,20
55.1355,25
55.1541,29
55.1727,25
55.1913,28
55.2098,39
55.2284,32
55.2470,24
55.2656,34
55.2841,26
55.3027,28
55.3213,18
55.3399,18
55.3585,29
55.3770,20
55.3956,26
55.4142,30
55.4328,22
55.4513,18
55.4699,26
55.4885,22
55.5071,41
55.5256,23
55.5442,19
55.5628,37
55.5814,28
55.5999,25
55.6185,37
55.6371,30
55.6557,33
55.6742,33
55.6928,26
55.7114,25
55.7300,26
55.7485,40
55.7671,29
55.7857,32
55.8043,30
55.8228,30
55.8414,26
55.8600,17
55.8786,27
55.8971,32
55.9157,31
55.9343,19
55.9529,29
55.9714,29
55.9900,30
56.0086,32
56.0272,22
56.0457,30
56.0643,30
56.0829,39
56.1015,27
56.1201,34
56.1386,32
56.1572,30
56.1758,41
56.1944,30
56.2129,30
56.2315,38
56.2501,28
56.2687,40
56.2872,28
56.3058,27
56.3244,32
56.3430,21
56.3615,33
56.3801,25
56.3987,27
56.4173,41
56.4358,22
56.4544,24
56.4730,34
56.4916,18
56.5101,29
56.5287,22
56.5473,29
56.5659,38
56.5844,29
56.6030,29
56.6216,29
56.6402,31
56.6587,38
56.6773,26
56.6959,28
56.7145,27
56.7330,33
56.7516,24
56.7702,28
56.7888,29
56.8073,15
56.8259,32
56.8445,27
56.8631,29
56.8817,26
56.9002,24
56.9188,31
56.9374,27
56.9560,25
56.9745,26
56.9931,36
57.0117,18
57.0303,13
57.0488,30
57.0674,22
57.0860,29
57.1046,33
57.1231,26
57.1417,29
57.1603,34
57.1789,33
57.1974,21
57.2160,36
57.2346,24
57.2532,33
57.2717,29
57.2903,34
57.3089,17
57.3275,26
57.3460,32
57.3646,34
57.3832,36
57.4018,21
57.4203,18
57.4389,42
57.4575,23
57.4761,22
57.4946,28
57.5132,29
57.5318,30
57.5504,19
57.5689,26
57.5875,26
57.6061,35
57.6247,27
57.6433,32
57.6618,17
57.6804,45
57.6990,27
57.7176,29
57.7361,28
57.7547,26
57.7733,20
57.7919,36
57.8104,32
57.8290,19
57.8476,29
57.8662,27
57.8847,32
57.9033,34
57.9219,29
57.9405,19
57.9590,20
57.9776,34
57.9962,20
58.0148,24
58.0333,22
58.0519,33
58.0705,33
58.0891,31
58.1076,33
58.1262,33
58.1448,21
58.1634,24
58.1819,27
58.2005,23
58.2191,32
58.2377,27
58.2562,27
58.2748,31
58.2934,36
58.3120,37
58.3305,22
58.3491,27
58.3677,23
58.3863,45
58.4049,33
58.4234,24
58.4420,17
58.4606,34
58.4792,23
58.4977,23
58.5163,25
58.5349,28
58.5535,20
58.5720,27
58.5906,25
58.6092,32
58.6278,27
58.6463,23
58.6649,25
58.6835,20
58.7021,23
58.7206,31
58.7392,36
58.7578,24
58.7764,32
58.7949,27
58.8135,24
58.8321,21
58.8507,29
58.8692,35
58.8878,24
58.9064,22
58.9250,19
58.9435,31
58.9621,31
58.9807,31
58.9993,25
59.0178,31
59.0364,29
59.0550,31
59.0736,28
59.0921,28
59.1107,32
59.1293,33
59.1479,29
59.1664,30
59.1850,25
59.2036,29
59.2222,23
59.2408,29
59.2593,26
59.2779,43
59.2965,27
59.3151,33
59.3336,28
59.3522,39
59.3708,42
59.3894,30
59.4079,32
59.4265,30
59.4451,27
59.4637,28
59.4822,19
59.5008,29
59.5194,26
59.5380,26
59.5565,22
59.5751,22
59.5937,28
59.6123,28
59.6308,29
59.6494,25
59.6680,31
59.6866,29
59.7051,26
59.7237,20
59.7423,37
59.7609,26
59.7794,28
59.7980,27
59.8166,31
59.8352,26
59.8537,32
59.8723,36
59.8909,31
59.9095,22
59.9280,33
59.9466,23
59.9652,26
59.9838,22
60.0024,27
