; (content of file Y:\Sam\Apurva-07-20-2022\puck4\ML_20220718_50_SJD_4_LaB6-2min.raw)
_FILEVERSION = 3
_SAMPLE = ML_20220718_50_SJD_4_LaB6-2min
_+SAMPLE = 
_SITE = USA
_USER = Administrator
_GONIOMETER_CODE = 20
; Goniometer : D8 theta/2theta, stage : Unknown
_ATTACHMENTS_CODE = 0
_GONIOMETER_RADIUS = 200.5
_FIXED_DIVSLIT = 0.6
_FIXED_SAMPLESLIT = 0
_SOLLER_SLITS = 2
_FIXED_DETSLIT = 9.55
_MONOCHROMATOR = 0
; Incident beam monochromator : None
_SOLLER_SLITS_2 = N
_THIN_FILM = N
_BETA_FILTER = Y
_FIXED_ANTISLIT = 5.89
_ANALYZER_CODE = 0
; Received beam analyzer : None
_DATEMEASURED = "26-Jul-2022 12:27:38"
_WL_UNIT = A
_WL1 = 1.5406
_WL2 = 1.54439
_WL3 = 1.39222
_WLRATIO = 0.5
_ANODE = Cu
_V4_INF_CREATOR = XRDWizard
_V4_INF_CREATOR_VERSION = V2.9.0.22
_V4_INF_WIZARD_VERSION = V2.9.0.22
_V4_INF_WIZARD_ADDINS = V2.9.0.22
_V4_INF_WIZARD_DOCTYPE = XRD
_V4_INF_OSUSER = McQueenLab
_V4_INF_USER = Administrator
_V4_INF_SITE = USA
_V4_INF_SAMPLEID = ML_20220718_50_SJD_4_LaB6-2min

; Data for range 1
_DRIVE = COUPLED
_STEPTIME = 5.64
_STEPSIZE = 0.0185756
_STEPMODE = C
_START = 5
_THETA = 2.5
_2THETA = 5
_KHI = 0
_PHI = 0
_X = 0
_Y = 0
_Z = 0
_DETECTOR = 5
; Detector type : Unknown
_DETECTORSLIT = unkn
_AUX1 = 0
_AUX2 = 0
_AUX3 = 0
_TIMESTARTED = 15
_TEMP_RATE = -1
_TEMP_DELAY = -1
_KV = 40
_MA = 40
_RANGE_WL = 1.5406
_3DPLANE = 0
_V4_ADDITIONALDETECTOR = 257
_V4_PSD2THETA = 3.4183
_V4_PSDCHANNEL1 = 0
_V4_PSDAPERTURE = 12.68
_V4_PSDTYPE = 5
_V4_PSDFIXED = 0
_V4_COUNTERS_MASK = 4096
_V4_DRIVES_MASK = 0
_V4_ENCODERS_MASK = 0
_2THETACOUNTS = 1
; 2THETA  PSD
   5.0000        115
   5.0186        125
   5.0372        128
   5.0557        104
   5.0743        143
   5.0929        150
   5.1115        130
   5.1300        124
   5.1486        111
   5.1672        124
   5.1858        106
   5.2043        112
   5.2229        114
   5.2415        121
   5.2601        127
   5.2786        118
   5.2972         93
   5.3158        129
   5.3344        133
   5.3529        103
   5.3715        100
   5.3901        133
   5.4087        109
   5.4272        101
   5.4458        106
   5.4644        119
   5.4830        114
   5.5015        121
   5.5201        107
   5.5387        118
   5.5573        126
   5.5758        116
   5.5944        126
   5.6130        112
   5.6316        116
   5.6501         99
   5.6687        112
   5.6873        103
   5.7059        109
   5.7244        111
   5.7430         85
   5.7616        100
   5.7802        104
   5.7988         89
   5.8173         99
   5.8359        108
   5.8545        114
   5.8731        113
   5.8916        117
   5.9102        105
   5.9288         91
   5.9474        111
   5.9659        100
   5.9845         95
   6.0031        105
   6.0217         94
   6.0402         81
   6.0588        105
   6.0774         85
   6.0960         98
   6.1145        103
   6.1331         78
   6.1517         89
   6.1703         79
   6.1888         90
   6.2074        107
   6.2260         87
   6.2446         94
   6.2631         96
   6.2817         86
   6.3003         97
   6.3189         94
   6.3374         90
   6.3560         94
   6.3746         90
   6.3932        104
   6.4117         92
   6.4303         97
   6.4489         87
   6.4675         76
   6.4860         88
   6.5046         81
   6.5232         75
   6.5418         90
   6.5604         97
   6.5789         73
   6.5975         79
   6.6161         86
   6.6347         81
   6.6532         68
   6.6718         89
   6.6904         88
   6.7090         80
   6.7275         95
   6.7461         89
   6.7647        104
   6.7833         78
   6.8018         89
   6.8204         85
   6.8390         87
   6.8576         77
   6.8761         99
   6.8947         72
   6.9133         84
   6.9319         68
   6.9504         88
   6.9690         73
   6.9876         75
   7.0062         75
   7.0247         71
   7.0433         80
   7.0619         69
   7.0805         77
   7.0990         93
   7.1176         74
   7.1362         68
   7.1548         70
   7.1733         84
   7.1919         86
   7.2105         78
   7.2291         72
   7.2476         84
   7.2662         75
   7.2848         79
   7.3034         75
   7.3220         69
   7.3405         75
   7.3591         87
   7.3777         84
   7.3963         76
   7.4148         80
   7.4334         73
   7.4520         74
   7.4706         79
   7.4891         81
   7.5077         79
   7.5263         80
   7.5449         77
   7.5634         75
   7.5820         74
   7.6006         78
   7.6192         81
   7.6377        100
   7.6563         91
   7.6749         77
   7.6935         90
   7.7120         87
   7.7306         89
   7.7492         85
   7.7678         94
   7.7863         85
   7.8049        105
   7.8235         88
   7.8421         85
   7.8606         89
   7.8792         95
   7.8978         80
   7.9164         93
   7.9349        103
   7.9535         93
   7.9721         99
   7.9907         84
   8.0092        100
   8.0278         84
   8.0464        116
   8.0650         87
   8.0835         82
   8.1021         96
   8.1207         85
   8.1393         85
   8.1579         94
   8.1764        107
   8.1950         87
   8.2136         84
   8.2322         90
   8.2507         75
   8.2693         81
   8.2879         96
   8.3065         88
   8.3250        103
   8.3436         97
   8.3622         80
   8.3808         97
   8.3993         98
   8.4179        106
   8.4365         80
   8.4551         86
   8.4736        100
   8.4922         99
   8.5108         84
   8.5294         85
   8.5479         84
   8.5665        101
   8.5851        100
   8.6037        108
   8.6222        101
   8.6408        117
   8.6594         81
   8.6780         90
   8.6965         98
   8.7151        113
   8.7337        114
   8.7523        102
   8.7708        105
   8.7894         94
   8.8080        104
   8.8266         81
   8.8451         97
   8.8637        110
   8.8823        111
   8.9009        100
   8.9195        103
   8.9380         93
   8.9566        100
   8.9752         96
   8.9938        101
   9.0123         87
   9.0309        118
   9.0495         97
   9.0681        106
   9.0866        109
   9.1052        111
   9.1238        104
   9.1424        110
   9.1609        100
   9.1795         93
   9.1981        114
   9.2167        109
   9.2352        113
   9.2538        119
   9.2724         85
   9.2910        105
   9.3095        103
   9.3281         98
   9.3467        115
   9.3653         97
   9.3838         97
   9.4024        104
   9.4210        109
   9.4396        108
   9.4581        135
   9.4767        100
   9.4953        104
   9.5139        112
   9.5324        129
   9.5510        121
   9.5696        108
   9.5882        103
   9.6067        105
   9.6253        114
   9.6439        133
   9.6625        120
   9.6811        105
   9.6996        105
   9.7182        115
   9.7368        125
   9.7554        124
   9.7739        109
   9.7925        117
   9.8111        104
   9.8297        115
   9.8482        125
   9.8668         97
   9.8854        129
   9.9040        118
   9.9225        129
   9.9411        123
   9.9597        135
   9.9783        120
   9.9968        134
  10.0154         99
  10.0340        120
  10.0526        126
  10.0711        115
  10.0897        121
  10.1083        125
  10.1269        115
  10.1454        113
  10.1640        117
  10.1826        106
  10.2012         99
  10.2197        123
  10.2383        118
  10.2569        121
  10.2755        118
  10.2940        113
  10.3126        119
  10.3312        128
  10.3498        136
  10.3683        112
  10.3869        114
  10.4055        123
  10.4241        107
  10.4427        144
  10.4612        123
  10.4798        128
  10.4984        118
  10.5170        112
  10.5355        102
  10.5541         98
  10.5727        114
  10.5913        112
  10.6098        133
  10.6284        125
  10.6470        130
  10.6656        108
  10.6841        114
  10.7027        132
  10.7213        115
  10.7399        118
  10.7584        100
  10.7770        122
  10.7956        112
  10.8142        130
  10.8327        104
  10.8513        112
  10.8699        102
  10.8885        128
  10.9070        115
  10.9256        111
  10.9442        120
  10.9628        131
  10.9813        123
  10.9999        111
  11.0185         97
  11.0371        104
  11.0556        111
  11.0742         96
  11.0928         97
  11.1114        132
  11.1299        111
  11.1485        107
  11.1671        106
  11.1857        131
  11.2043        118
  11.2228        124
  11.2414        135
  11.2600        133
  11.2786        132
  11.2971        117
  11.3157        126
  11.3343        108
  11.3529        116
  11.3714        120
  11.3900        124
  11.4086        129
  11.4272        127
  11.4457        111
  11.4643        126
  11.4829        119
  11.5015        128
  11.5200        126
  11.5386        112
  11.5572        112
  11.5758        113
  11.5943        127
  11.6129        118
  11.6315        106
  11.6501        115
  11.6686         99
  11.6872        121
  11.7058        117
  11.7244        121
  11.7429        127
  11.7615        122
  11.7801        116
  11.7987        118
  11.8172         88
  11.8358        104
  11.8544        103
  11.8730        120
  11.8915        124
  11.9101        119
  11.9287         88
  11.9473        130
  11.9659         98
  11.9844        129
  12.0030        114
  12.0216        116
  12.0402        111
  12.0587        101
  12.0773        105
  12.0959        116
  12.1145        104
  12.1330        111
  12.1516         95
  12.1702        113
  12.1888        122
  12.2073        100
  12.2259        104
  12.2445        103
  12.2631        117
  12.2816        114
  12.3002        100
  12.3188        110
  12.3374        112
  12.3559         98
  12.3745         94
  12.3931         90
  12.4117        108
  12.4302        134
  12.4488        118
  12.4674        121
  12.4860        108
  12.5045         99
  12.5231        128
  12.5417         91
  12.5603        117
  12.5788        108
  12.5974        112
  12.6160        106
  12.6346         98
  12.6531         97
  12.6717        109
  12.6903        122
  12.7089        112
  12.7274        108
  12.7460        101
  12.7646        106
  12.7832         98
  12.8018        103
  12.8203        100
  12.8389         79
  12.8575         95
  12.8761        116
  12.8946         98
  12.9132        110
  12.9318        110
  12.9504         87
  12.9689        101
  12.9875         98
  13.0061         94
  13.0247         99
  13.0432        111
  13.0618         99
  13.0804         98
  13.0990        122
  13.1175         85
  13.1361         95
  13.1547        108
  13.1733         90
  13.1918        110
  13.2104        102
  13.2290        100
  13.2476         88
  13.2661         95
  13.2847         97
  13.3033         97
  13.3219        109
  13.3404        105
  13.3590         76
  13.3776         95
  13.3962        105
  13.4147         99
  13.4333         89
  13.4519         93
  13.4705        105
  13.4890        103
  13.5076        105
  13.5262         90
  13.5448         93
  13.5634        101
  13.5819        122
  13.6005         92
  13.6191        113
  13.6377         94
  13.6562         87
  13.6748         88
  13.6934         99
  13.7120         94
  13.7305         97
  13.7491         78
  13.7677        103
  13.7863         96
  13.8048        103
  13.8234         91
  13.8420        102
  13.8606        100
  13.8791        100
  13.8977         70
  13.9163         95
  13.9349         81
  13.9534         92
  13.9720         99
  13.9906         85
  14.0092         89
  14.0277         98
  14.0463         90
  14.0649         96
  14.0835         97
  14.1020         93
  14.1206         86
  14.1392         92
  14.1578        100
  14.1763         92
  14.1949         85
  14.2135         63
  14.2321         89
  14.2506        101
  14.2692         93
  14.2878         99
  14.3064        103
  14.3250         98
  14.3435         97
  14.3621         82
  14.3807        102
  14.3993         91
  14.4178         92
  14.4364         92
  14.4550         83
  14.4736         80
  14.4921         91
  14.5107         78
  14.5293         86
  14.5479         89
  14.5664         86
  14.5850         76
  14.6036         81
  14.6222         86
  14.6407         80
  14.6593         98
  14.6779         82
  14.6965         79
  14.7150         72
  14.7336         82
  14.7522         85
  14.7708         81
  14.7893         91
  14.8079         88
  14.8265         83
  14.8451         60
  14.8636         79
  14.8822         61
  14.9008         62
  14.9194         95
  14.9379         71
  14.9565         90
  14.9751         78
  14.9937         93
  15.0122         85
  15.0308         64
  15.0494         90
  15.0680         84
  15.0866        104
  15.1051         72
  15.1237         65
  15.1423         95
  15.1609         78
  15.1794         89
  15.1980         78
  15.2166         87
  15.2352         76
  15.2537         65
  15.2723         77
  15.2909         86
  15.3095         67
  15.3280         70
  15.3466         76
  15.3652         85
  15.3838         84
  15.4023         88
  15.4209         89
  15.4395         64
  15.4581         77
  15.4766         79
  15.4952         80
  15.5138         83
  15.5324         86
  15.5509         75
  15.5695         75
  15.5881         89
  15.6067         68
  15.6252         86
  15.6438         83
  15.6624         80
  15.6810         66
  15.6995         88
  15.7181         91
  15.7367         93
  15.7553         91
  15.7738         83
  15.7924         85
  15.8110         89
  15.8296         82
  15.8482         87
  15.8667         80
  15.8853         65
  15.9039         72
  15.9225         72
  15.9410         82
  15.9596         81
  15.9782         90
  15.9968         84
  16.0153         75
  16.0339         89
  16.0525         77
  16.0711         87
  16.0896         94
  16.1082         80
  16.1268         73
  16.1454         83
  16.1639         79
  16.1825         93
  16.2011         83
  16.2197         76
  16.2382         71
  16.2568         75
  16.2754         79
  16.2940         89
  16.3125         99
  16.3311         93
  16.3497         83
  16.3683         67
  16.3868         62
  16.4054         74
  16.4240         70
  16.4426         86
  16.4611         71
  16.4797         89
  16.4983         71
  16.5169         86
  16.5354         86
  16.5540         63
  16.5726         72
  16.5912         80
  16.6097         87
  16.6283         82
  16.6469         94
  16.6655         78
  16.6841         80
  16.7026         81
  16.7212         86
  16.7398         64
  16.7584         73
  16.7769         63
  16.7955         81
  16.8141         80
  16.8327         68
  16.8512         76
  16.8698         77
  16.8884         82
  16.9070         88
  16.9255         71
  16.9441         83
  16.9627         88
  16.9813         76
  16.9998         70
  17.0184         75
  17.0370         69
  17.0556         78
  17.0741         77
  17.0927         71
  17.1113         73
  17.1299         72
  17.1484         70
  17.1670         99
  17.1856         75
  17.2042         97
  17.2227         73
  17.2413         76
  17.2599         76
  17.2785         83
  17.2970         75
  17.3156         73
  17.3342         70
  17.3528         84
  17.3713         77
  17.3899         77
  17.4085         74
  17.4271         75
  17.4457         94
  17.4642         71
  17.4828         85
  17.5014         87
  17.5200         93
  17.5385         77
  17.5571         91
  17.5757         72
  17.5943         68
  17.6128         77
  17.6314         89
  17.6500        102
  17.6686         72
  17.6871         76
  17.7057         75
  17.7243         78
  17.7429         78
  17.7614         80
  17.7800         78
  17.7986         84
  17.8172         88
  17.8357         98
  17.8543         75
  17.8729         83
  17.8915         80
  17.9100         73
  17.9286         75
  17.9472         87
  17.9658         71
  17.9843         78
  18.0029         79
  18.0215         74
  18.0401         76
  18.0586         75
  18.0772         92
  18.0958         92
  18.1144         88
  18.1329         78
  18.1515         74
  18.1701         82
  18.1887         91
  18.2073         72
  18.2258         77
  18.2444         76
  18.2630         93
  18.2816         83
  18.3001         86
  18.3187         80
  18.3373         83
  18.3559         89
  18.3744         88
  18.3930         87
  18.4116         70
  18.4302         82
  18.4487         81
  18.4673        105
  18.4859         73
  18.5045         88
  18.5230         82
  18.5416         80
  18.5602         65
  18.5788         85
  18.5973         98
  18.6159         86
  18.6345         83
  18.6531         74
  18.6716         94
  18.6902         96
  18.7088         88
  18.7274         81
  18.7459         68
  18.7645         85
  18.7831         99
  18.8017         75
  18.8202         86
  18.8388         90
  18.8574         72
  18.8760         75
  18.8945         64
  18.9131         95
  18.9317         84
  18.9503         88
  18.9689         86
  18.9874         80
  19.0060         78
  19.0246         83
  19.0432         54
  19.0617         88
  19.0803         71
  19.0989         79
  19.1175         83
  19.1360         74
  19.1546         88
  19.1732         68
  19.1918         86
  19.2103         89
  19.2289         69
  19.2475         81
  19.2661         76
  19.2846         70
  19.3032         85
  19.3218         77
  19.3404        118
  19.3589         82
  19.3775         87
  19.3961         87
  19.4147         78
  19.4332         98
  19.4518         86
  19.4704         78
  19.4890         94
  19.5075         96
  19.5261         90
  19.5447         89
  19.5633         82
  19.5818         85
  19.6004         80
  19.6190         85
  19.6376        112
  19.6561         90
  19.6747        107
  19.6933         86
  19.7119         77
  19.7305         92
  19.7490         81
  19.7676         87
  19.7862         75
  19.8048         82
  19.8233         75
  19.8419         80
  19.8605         95
  19.8791         99
  19.8976         96
  19.9162         87
  19.9348         77
  19.9534         94
  19.9719        105
  19.9905         83
  20.0091         96
  20.0277         81
  20.0462         76
  20.0648         90
  20.0834         81
  20.1020         85
  20.1205         94
  20.1391         94
  20.1577         85
  20.1763         83
  20.1948         94
  20.2134        107
  20.2320         89
  20.2506         95
  20.2691         92
  20.2877        115
  20.3063         93
  20.3249         91
  20.3434         98
  20.3620         79
  20.3806        108
  20.3992         85
  20.4177         85
  20.4363         87
  20.4549         87
  20.4735         82
  20.4921         90
  20.5106        101
  20.5292         85
  20.5478        102
  20.5664         98
  20.5849         85
  20.6035         80
  20.6221         81
  20.6407         87
  20.6592         80
  20.6778        102
  20.6964         81
  20.7150         93
  20.7335         83
  20.7521        110
  20.7707         81
  20.7893         99
  20.8078         90
  20.8264         87
  20.8450         95
  20.8636         78
  20.8821         71
  20.9007         91
  20.9193         92
  20.9379        106
  20.9564         73
  20.9750         68
  20.9936         95
  21.0122        101
  21.0307         88
  21.0493        102
  21.0679         96
  21.0865        100
  21.1050        109
  21.1236        103
  21.1422         85
  21.1608        114
  21.1793        132
  21.1979        156
  21.2165        161
  21.2351        135
  21.2537        150
  21.2722        154
  21.2908        137
  21.3094        150
  21.3280        183
  21.3465        223
  21.3651        224
  21.3837        204
  21.4023        188
  21.4208        192
  21.4394        134
  21.4580         97
  21.4766        107
  21.4951        108
  21.5137        119
  21.5323         81
  21.5509         91
  21.5694         93
  21.5880        106
  21.6066         96
  21.6252         99
  21.6437         98
  21.6623         95
  21.6809         98
  21.6995         89
  21.7180         96
  21.7366        102
  21.7552         97
  21.7738         89
  21.7923         87
  21.8109        104
  21.8295        102
  21.8481        103
  21.8666        104
  21.8852         89
  21.9038         95
  21.9224        103
  21.9409        110
  21.9595         85
  21.9781         89
  21.9967         84
  22.0152        104
  22.0338         94
  22.0524        107
  22.0710         75
  22.0896        102
  22.1081         97
  22.1267         92
  22.1453        110
  22.1639         92
  22.1824        105
  22.2010        102
  22.2196         86
  22.2382        103
  22.2567        103
  22.2753         97
  22.2939         97
  22.3125        100
  22.3310         84
  22.3496         96
  22.3682        121
  22.3868        115
  22.4053         93
  22.4239         91
  22.4425         92
  22.4611         96
  22.4796         88
  22.4982        121
  22.5168        106
  22.5354         97
  22.5539        102
  22.5725         77
  22.5911         88
  22.6097         73
  22.6282        108
  22.6468         84
  22.6654         96
  22.6840        102
  22.7025         98
  22.7211         91
  22.7397         87
  22.7583         99
  22.7768         92
  22.7954        106
  22.8140        108
  22.8326        111
  22.8512         92
  22.8697         92
  22.8883         85
  22.9069        106
  22.9255         76
  22.9440         83
  22.9626        100
  22.9812        103
  22.9998         98
  23.0183        101
  23.0369         85
  23.0555        108
  23.0741        101
  23.0926         87
  23.1112         87
  23.1298         96
  23.1484         93
  23.1669         94
  23.1855        103
  23.2041        104
  23.2227        100
  23.2412         99
  23.2598        117
  23.2784         93
  23.2970        107
  23.3155         86
  23.3341        101
  23.3527         91
  23.3713         91
  23.3898         97
  23.4084         87
  23.4270        104
  23.4456        111
  23.4641        107
  23.4827         85
  23.5013         87
  23.5199         99
  23.5384         81
  23.5570         98
  23.5756         93
  23.5942         83
  23.6128        111
  23.6313        109
  23.6499         92
  23.6685         93
  23.6871         96
  23.7056        109
  23.7242        110
  23.7428        107
  23.7614         91
  23.7799         97
  23.7985         92
  23.8171        108
  23.8357         98
  23.8542        110
  23.8728         90
  23.8914         92
  23.9100        107
  23.9285        104
  23.9471        118
  23.9657         96
  23.9843         87
  24.0028         93
  24.0214         89
  24.0400         82
  24.0586         95
  24.0771         97
  24.0957        104
  24.1143        110
  24.1329         87
  24.1514        107
  24.1700         93
  24.1886        116
  24.2072         87
  24.2257         98
  24.2443        106
  24.2629        120
  24.2815        124
  24.3000         94
  24.3186        119
  24.3372        115
  24.3558        109
  24.3744         97
  24.3929        102
  24.4115         95
  24.4301         90
  24.4487        109
  24.4672        104
  24.4858        103
  24.5044        103
  24.5230        102
  24.5415         95
  24.5601         87
  24.5787        102
  24.5973        114
  24.6158        103
  24.6344        103
  24.6530         96
  24.6716        103
  24.6901        109
  24.7087         90
  24.7273         97
  24.7459        113
  24.7644        109
  24.7830         98
  24.8016        101
  24.8202         93
  24.8387         96
  24.8573         90
  24.8759         96
  24.8945         98
  24.9130        110
  24.9316         91
  24.9502         85
  24.9688         97
  24.9873        103
  25.0059        103
  25.0245        102
  25.0431         88
  25.0616         88
  25.0802        100
  25.0988         88
  25.1174         96
  25.1360         98
  25.1545        107
  25.1731         89
  25.1917        105
  25.2103         97
  25.2288        113
  25.2474         99
  25.2660         96
  25.2846         96
  25.3031         91
  25.3217         82
  25.3403         95
  25.3589         92
  25.3774        115
  25.3960         91
  25.4146         91
  25.4332        110
  25.4517         99
  25.4703         91
  25.4889         92
  25.5075         75
  25.5260        105
  25.5446        108
  25.5632         98
  25.5818         86
  25.6003        101
  25.6189         84
  25.6375         98
  25.6561         99
  25.6746         83
  25.6932         65
  25.7118        103
  25.7304        101
  25.7489        100
  25.7675        106
  25.7861         86
  25.8047         86
  25.8232         97
  25.8418        109
  25.8604         88
  25.8790         85
  25.8976        110
  25.9161         90
  25.9347        105
  25.9533        100
  25.9719        103
  25.9904         94
  26.0090         97
  26.0276        106
  26.0462        101
  26.0647        106
  26.0833         90
  26.1019         83
  26.1205         86
  26.1390         90
  26.1576         71
  26.1762         83
  26.1948         83
  26.2133        110
  26.2319         95
  26.2505        107
  26.2691        111
  26.2876         89
  26.3062         83
  26.3248         96
  26.3434         90
  26.3619        103
  26.3805        100
  26.3991         73
  26.4177         74
  26.4362        100
  26.4548         98
  26.4734        100
  26.4920         97
  26.5105        102
  26.5291        103
  26.5477         88
  26.5663         89
  26.5848         93
  26.6034         88
  26.6220         82
  26.6406         86
  26.6591        102
  26.6777        101
  26.6963         74
  26.7149         86
  26.7335         92
  26.7520         74
  26.7706        111
  26.7892         86
  26.8078         93
  26.8263         86
  26.8449        105
  26.8635         93
  26.8821         97
  26.9006         82
  26.9192         99
  26.9378        102
  26.9564         77
  26.9749         85
  26.9935         89
  27.0121        106
  27.0307        105
  27.0492        104
  27.0678         93
  27.0864         93
  27.1050         88
  27.1235        109
  27.1421         96
  27.1607         87
  27.1793        109
  27.1978        112
  27.2164        111
  27.2350        114
  27.2536        110
  27.2721        112
  27.2907         98
  27.3093        105
  27.3279         97
  27.3464         88
  27.3650         99
  27.3836         86
  27.4022         81
  27.4207        100
  27.4393        104
  27.4579         96
  27.4765         92
  27.4951         96
  27.5136         98
  27.5322         98
  27.5508         99
  27.5694         88
  27.5879         98
  27.6065         85
  27.6251         82
  27.6437         94
  27.6622         90
  27.6808         74
  27.6994         92
  27.7180         85
  27.7365         84
  27.7551        110
  27.7737         83
  27.7923         86
  27.8108         75
  27.8294         86
  27.8480        105
  27.8666         79
  27.8851         89
  27.9037         87
  27.9223         86
  27.9409         91
  27.9594         80
  27.9780         95
  27.9966        101
  28.0152         91
  28.0337         84
  28.0523         93
  28.0709         84
  28.0895         99
  28.1080        109
  28.1266         84
  28.1452         89
  28.1638         99
  28.1823         70
  28.2009         83
  28.2195         81
  28.2381         93
  28.2567         86
  28.2752         92
  28.2938         81
  28.3124         77
  28.3310         89
  28.3495         81
  28.3681         83
  28.3867         79
  28.4053         71
  28.4238         81
  28.4424         74
  28.4610         89
  28.4796         86
  28.4981         82
  28.5167         86
  28.5353         80
  28.5539         87
  28.5724         71
  28.5910         71
  28.6096         80
  28.6282         91
  28.6467         70
  28.6653         94
  28.6839         79
  28.7025         94
  28.7210         66
  28.7396         63
  28.7582         87
  28.7768        102
  28.7953         77
  28.8139         74
  28.8325         76
  28.8511         66
  28.8696         89
  28.8882         82
  28.9068         90
  28.9254         89
  28.9439         80
  28.9625         84
  28.9811         71
  28.9997         73
  29.0183         76
  29.0368         85
  29.0554         90
  29.0740         79
  29.0926         92
  29.1111         79
  29.1297         79
  29.1483         88
  29.1669         79
  29.1854         71
  29.2040         75
  29.2226         67
  29.2412         73
  29.2597         77
  29.2783         99
  29.2969         71
  29.3155         59
  29.3340         80
  29.3526         86
  29.3712        100
  29.3898         79
  29.4083         65
  29.4269         68
  29.4455         81
  29.4641         77
  29.4826         73
  29.5012         74
  29.5198         69
  29.5384         67
  29.5569         78
  29.5755         74
  29.5941         68
  29.6127         78
  29.6312         65
  29.6498         76
  29.6684         72
  29.6870         77
  29.7055         83
  29.7241         71
  29.7427         95
  29.7613         80
  29.7799         74
  29.7984         73
  29.8170         75
  29.8356         69
  29.8542         77
  29.8727         96
  29.8913         87
  29.9099         74
  29.9285         65
  29.9470         76
  29.9656         92
  29.9842        103
  30.0028         79
  30.0213         86
  30.0399         63
  30.0585         62
  30.0771         82
  30.0956         70
  30.1142         71
  30.1328         77
  30.1514         83
  30.1699         76
  30.1885         79
  30.2071         78
  30.2257         70
  30.2442         65
  30.2628         88
  30.2814         80
  30.3000         85
  30.3185         91
  30.3371         77
  30.3557        133
  30.3743        133
  30.3928        183
  30.4114        143
  30.4300        118
  30.4486        129
  30.4671        117
  30.4857        107
  30.5043         88
  30.5229         83
  30.5415         85
  30.5600         87
  30.5786         69
  30.5972         80
  30.6158         71
  30.6343         61
  30.6529         64
  30.6715         69
  30.6901         85
  30.7086         69
  30.7272         83
  30.7458         59
  30.7644         84
  30.7829         70
  30.8015         75
  30.8201         67
  30.8387         71
  30.8572         69
  30.8758         67
  30.8944         73
  30.9130         67
  30.9315         74
  30.9501         71
  30.9687         71
  30.9873         80
  31.0058         52
  31.0244         82
  31.0430         74
  31.0616         72
  31.0801         90
  31.0987         59
  31.1173         80
  31.1359         66
  31.1544         70
  31.1730         87
  31.1916         71
  31.2102         71
  31.2287         60
  31.2473         76
  31.2659         80
  31.2845         57
  31.3030         65
  31.3216         71
  31.3402         60
  31.3588         70
  31.3774         69
  31.3959         56
  31.4145         64
  31.4331         70
  31.4517         66
  31.4702         67
  31.4888         69
  31.5074         69
  31.5260         76
  31.5445         81
  31.5631         65
  31.5817         72
  31.6003         63
  31.6188         69
  31.6374         74
  31.6560         66
  31.6746         67
  31.6931         63
  31.7117         61
  31.7303         75
  31.7489         65
  31.7674         72
  31.7860         54
  31.8046         70
  31.8232         60
  31.8417         63
  31.8603         72
  31.8789         65
  31.8975         67
  31.9160         63
  31.9346         61
  31.9532         65
  31.9718         71
  31.9903         65
  32.0089         61
  32.0275         61
  32.0461         69
  32.0646         59
  32.0832         55
  32.1018         53
  32.1204         69
  32.1390         79
  32.1575         68
  32.1761         64
  32.1947         67
  32.2133         83
  32.2318         62
  32.2504         74
  32.2690         61
  32.2876         73
  32.3061         49
  32.3247         60
  32.3433         53
  32.3619         78
  32.3804         70
  32.3990         68
  32.4176         57
  32.4362         80
  32.4547         68
  32.4733         72
  32.4919         72
  32.5105         83
  32.5290         81
  32.5476         81
  32.5662         70
  32.5848         85
  32.6033         60
  32.6219         73
  32.6405         57
  32.6591         75
  32.6776         58
  32.6962         45
  32.7148         72
  32.7334         68
  32.7519         59
  32.7705         65
  32.7891         51
  32.8077         70
  32.8262         67
  32.8448         58
  32.8634         52
  32.8820         63
  32.9006         60
  32.9191         74
  32.9377         59
  32.9563         73
  32.9749         57
  32.9934         76
  33.0120         60
  33.0306         74
  33.0492         57
  33.0677         58
  33.0863         60
  33.1049         71
  33.1235         61
  33.1420         65
  33.1606         67
  33.1792         62
  33.1978         62
  33.2163         53
  33.2349         60
  33.2535         55
  33.2721         50
  33.2906         56
  33.3092         61
  33.3278         51
  33.3464         57
  33.3649         66
  33.3835         57
  33.4021         56
  33.4207         61
  33.4392         63
  33.4578         65
  33.4764         64
  33.4950         58
  33.5135         55
  33.5321         58
  33.5507         50
  33.5693         51
  33.5878         62
  33.6064         53
  33.6250         51
  33.6436         49
  33.6622         56
  33.6807         52
  33.6993         56
  33.7179         64
  33.7365         53
  33.7550         54
  33.7736         59
  33.7922         60
  33.8108         68
  33.8293         46
  33.8479         51
  33.8665         62
  33.8851         48
  33.9036         49
  33.9222         52
  33.9408         64
  33.9594         68
  33.9779         49
  33.9965         63
  34.0151         67
  34.0337         51
  34.0522         60
  34.0708         63
  34.0894         60
  34.1080         50
  34.1265         50
  34.1451         49
  34.1637         71
  34.1823         64
  34.2008         62
  34.2194         61
  34.2380         65
  34.2566         69
  34.2751         55
  34.2937         64
  34.3123         53
  34.3309         54
  34.3494         44
  34.3680         61
  34.3866         38
  34.4052         55
  34.4238         58
  34.4423         55
  34.4609         60
  34.4795         60
  34.4981         52
  34.5166         58
  34.5352         69
  34.5538         66
  34.5724         67
  34.5909         61
  34.6095         60
  34.6281         60
  34.6467         60
  34.6652         63
  34.6838         66
  34.7024         66
  34.7210         70
  34.7395         75
  34.7581         77
  34.7767         83
  34.7953         76
  34.8138         78
  34.8324         67
  34.8510         65
  34.8696         60
  34.8881         63
  34.9067         59
  34.9253         63
  34.9439         54
  34.9624         47
  34.9810         48
  34.9996         60
  35.0182         70
  35.0367         48
  35.0553         56
  35.0739         46
  35.0925         56
  35.1110         48
  35.1296         40
  35.1482         54
  35.1668         43
  35.1854         57
  35.2039         63
  35.2225         53
  35.2411         63
  35.2597         49
  35.2782         60
  35.2968         47
  35.3154         50
  35.3340         57
  35.3525         51
  35.3711         52
  35.3897         46
  35.4083         53
  35.4268         57
  35.4454         46
  35.4640         53
  35.4826         45
  35.5011         49
  35.5197         45
  35.5383         42
  35.5569         36
  35.5754         47
  35.5940         53
  35.6126         45
  35.6312         44
  35.6497         46
  35.6683         49
  35.6869         46
  35.7055         48
  35.7240         61
  35.7426         44
  35.7612         45
  35.7798         55
  35.7983         52
  35.8169         40
  35.8355         48
  35.8541         39
  35.8726         59
  35.8912         37
  35.9098         58
  35.9284         45
  35.9469         43
  35.9655         54
  35.9841         40
  36.0027         46
  36.0213         48
  36.0398         49
  36.0584         53
  36.0770         37
  36.0956         51
  36.1141         46
  36.1327         30
  36.1513         49
  36.1699         45
  36.1884         45
  36.2070         59
  36.2256         40
  36.2442         52
  36.2627         49
  36.2813         38
  36.2999         48
  36.3185         42
  36.3370         38
  36.3556         40
  36.3742         49
  36.3928         47
  36.4113         44
  36.4299         52
  36.4485         53
  36.4671         49
  36.4856         52
  36.5042         55
  36.5228         48
  36.5414         39
  36.5599         46
  36.5785         45
  36.5971         47
  36.6157         54
  36.6342         50
  36.6528         47
  36.6714         46
  36.6900         47
  36.7085         52
  36.7271         41
  36.7457         49
  36.7643         45
  36.7829         52
  36.8014         39
  36.8200         42
  36.8386         55
  36.8572         45
  36.8757         62
  36.8943         45
  36.9129         43
  36.9315         46
  36.9500         55
  36.9686         43
  36.9872         46
  37.0058         29
  37.0243         37
  37.0429         50
  37.0615         42
  37.0801         59
  37.0986         45
  37.1172         38
  37.1358         43
  37.1544         41
  37.1729         41
  37.1915         35
  37.2101         52
  37.2287         48
  37.2472         44
  37.2658         41
  37.2844         42
  37.3030         44
  37.3215         41
  37.3401         35
  37.3587         30
  37.3773         56
  37.3958         63
  37.4144         44
  37.4330         68
  37.4516         95
  37.4701         68
  37.4887         66
  37.5073         58
  37.5259         60
  37.5445         61
  37.5630         52
  37.5816         52
  37.6002         36
  37.6188         46
  37.6373         52
  37.6559         36
  37.6745         38
  37.6931         49
  37.7116         35
  37.7302         56
  37.7488         41
  37.7674         37
  37.7859         51
  37.8045         41
  37.8231         36
  37.8417         53
  37.8602         48
  37.8788         41
  37.8974         31
  37.9160         44
  37.9345         49
  37.9531         39
  37.9717         38
  37.9903         47
  38.0088         42
  38.0274         44
  38.0460         54
  38.0646         34
  38.0831         50
  38.1017         41
  38.1203         43
  38.1389         35
  38.1574         42
  38.1760         38
  38.1946         33
  38.2132         44
  38.2317         33
  38.2503         46
  38.2689         37
  38.2875         40
  38.3061         37
  38.3246         43
  38.3432         46
  38.3618         37
  38.3804         44
  38.3989         37
  38.4175         54
  38.4361         41
  38.4547         45
  38.4732         45
  38.4918         35
  38.5104         48
  38.5290         39
  38.5475         46
  38.5661         33
  38.5847         43
  38.6033         41
  38.6218         33
  38.6404         29
  38.6590         59
  38.6776         45
  38.6961         42
  38.7147         25
  38.7333         31
  38.7519         41
  38.7704         38
  38.7890         36
  38.8076         37
  38.8262         41
  38.8447         50
  38.8633         45
  38.8819         31
  38.9005         37
  38.9190         45
  38.9376         37
  38.9562         34
  38.9748         54
  38.9933         32
  39.0119         45
  39.0305         35
  39.0491         30
  39.0677         36
  39.0862         38
  39.1048         50
  39.1234         41
  39.1420         39
  39.1605         46
  39.1791         36
  39.1977         40
  39.2163         42
  39.2348         37
  39.2534         46
  39.2720         43
  39.2906         29
  39.3091         31
  39.3277         46
  39.3463         42
  39.3649         35
  39.3834         27
  39.4020         40
  39.4206         39
  39.4392         35
  39.4577         36
  39.4763         40
  39.4949         38
  39.5135         33
  39.5320         38
  39.5506         43
  39.5692         54
  39.5878         36
  39.6063         42
  39.6249         34
  39.6435         36
  39.6621         42
  39.6806         38
  39.6992         36
  39.7178         34
  39.7364         55
  39.7549         38
  39.7735         35
  39.7921         50
  39.8107         32
  39.8293         42
  39.8478         41
  39.8664         38
  39.8850         38
  39.9036         37
  39.9221         38
  39.9407         33
  39.9593         38
  39.9779         39
  39.9964         40
  40.0150         42
  40.0336         47
  40.0522         42
  40.0707         32
  40.0893         42
  40.1079         22
  40.1265         40
  40.1450         40
  40.1636         38
  40.1822         27
  40.2008         38
  40.2193         38
  40.2379         43
  40.2565         36
  40.2751         39
  40.2936         35
  40.3122         39
  40.3308         31
  40.3494         44
  40.3679         33
  40.3865         39
  40.4051         32
  40.4237         45
  40.4422         45
  40.4608         49
  40.4794         39
  40.4980         39
  40.5165         39
  40.5351         33
  40.5537         38
  40.5723         37
  40.5908         38
  40.6094         38
  40.6280         36
  40.6466         46
  40.6652         35
  40.6837         41
  40.7023         47
  40.7209         38
  40.7395         34
  40.7580         41
  40.7766         41
  40.7952         48
  40.8138         45
  40.8323         36
  40.8509         42
  40.8695         37
  40.8881         37
  40.9066         33
  40.9252         44
  40.9438         36
  40.9624         31
  40.9809         39
  40.9995         42
  41.0181         43
  41.0367         43
  41.0552         39
  41.0738         42
  41.0924         36
  41.1110         41
  41.1295         45
  41.1481         32
  41.1667         33
  41.1853         33
  41.2038         42
  41.2224         42
  41.2410         34
  41.2596         38
  41.2781         31
  41.2967         36
  41.3153         38
  41.3339         37
  41.3524         34
  41.3710         41
  41.3896         35
  41.4082         47
  41.4268         36
  41.4453         26
  41.4639         40
  41.4825         39
  41.5011         37
  41.5196         41
  41.5382         38
  41.5568         33
  41.5754         40
  41.5939         40
  41.6125         29
  41.6311         28
  41.6497         40
  41.6682         33
  41.6868         31
  41.7054         41
  41.7240         33
  41.7425         44
  41.7611         31
  41.7797         37
  41.7983         42
  41.8168         25
  41.8354         39
  41.8540         37
  41.8726         37
  41.8911         27
  41.9097         40
  41.9283         40
  41.9469         28
  41.9654         37
  41.9840         42
  42.0026         34
  42.0212         43
  42.0397         33
  42.0583         27
  42.0769         49
  42.0955         37
  42.1140         43
  42.1326         37
  42.1512         34
  42.1698         33
  42.1884         34
  42.2069         25
  42.2255         34
  42.2441         35
  42.2627         39
  42.2812         35
  42.2998         32
  42.3184         27
  42.3370         30
  42.3555         41
  42.3741         37
  42.3927         36
  42.4113         30
  42.4298         30
  42.4484         36
  42.4670         27
  42.4856         36
  42.5041         35
  42.5227         38
  42.5413         29
  42.5599         33
  42.5784         40
  42.5970         32
  42.6156         36
  42.6342         45
  42.6527         34
  42.6713         26
  42.6899         33
  42.7085         39
  42.7270         35
  42.7456         42
  42.7642         39
  42.7828         37
  42.8013         35
  42.8199         37
  42.8385         36
  42.8571         28
  42.8756         35
  42.8942         33
  42.9128         38
  42.9314         29
  42.9500         41
  42.9685         48
  42.9871         50
  43.0057         45
  43.0243         39
  43.0428         30
  43.0614         26
  43.0800         40
  43.0986         36
  43.1171         39
  43.1357         35
  43.1543         23
  43.1729         48
  43.1914         35
  43.2100         39
  43.2286         40
  43.2472         40
  43.2657         36
  43.2843         43
  43.3029         42
  43.3215         41
  43.3400         44
  43.3586         37
  43.3772         43
  43.3958         32
  43.4143         31
  43.4329         29
  43.4515         35
  43.4701         47
  43.4886         59
  43.5072         65
  43.5258         72
  43.5444         57
  43.5629         35
  43.5815         49
  43.6001         42
  43.6187         63
  43.6372         64
  43.6558         47
  43.6744         38
  43.6930         39
  43.7116         47
  43.7301         29
  43.7487         42
  43.7673         28
  43.7859         29
  43.8044         24
  43.8230         33
  43.8416         30
  43.8602         28
  43.8787         32
  43.8973         28
  43.9159         40
  43.9345         32
  43.9530         30
  43.9716         31
  43.9902         34
  44.0088         26
  44.0273         34
  44.0459         34
  44.0645         48
  44.0831         45
  44.1016         49
  44.1202         39
  44.1388         45
  44.1574         50
  44.1759         23
  44.1945         39
  44.2131         29
  44.2317         44
  44.2502         37
  44.2688         31
  44.2874         47
  44.3060         32
  44.3245         39
  44.3431         31
  44.3617         28
  44.3803         35
  44.3988         33
  44.4174         44
  44.4360         33
  44.4546         42
  44.4732         29
  44.4917         31
  44.5103         29
  44.5289         40
  44.5475         34
  44.5660         49
  44.5846         44
  44.6032         38
  44.6218         44
  44.6403         34
  44.6589         29
  44.6775         52
  44.6961         30
  44.7146         48
  44.7332         38
  44.7518         39
  44.7704         46
  44.7889         37
  44.8075         39
  44.8261         51
  44.8447         35
  44.8632         31
  44.8818         28
  44.9004         28
  44.9190         41
  44.9375         34
  44.9561         23
  44.9747         36
  44.9933         34
  45.0118         39
  45.0304         40
  45.0490         35
  45.0676         37
  45.0861         40
  45.1047         30
  45.1233         32
  45.1419         30
  45.1604         35
  45.1790         29
  45.1976         37
  45.2162         39
  45.2347         29
  45.2533         38
  45.2719         40
  45.2905         33
  45.3091         40
  45.3276         30
  45.3462         32
  45.3648         37
  45.3834         33
  45.4019         25
  45.4205         39
  45.4391         31
  45.4577         34
  45.4762         34
  45.4948         31
  45.5134         33
  45.5320         31
  45.5505         24
  45.5691         31
  45.5877         35
  45.6063         31
  45.6248         29
  45.6434         41
  45.6620         37
  45.6806         29
  45.6991         40
  45.7177         27
  45.7363         29
  45.7549         37
  45.7734         21
  45.7920         35
  45.8106         38
  45.8292         28
  45.8477         32
  45.8663         35
  45.8849         35
  45.9035         27
  45.9220         23
  45.9406         32
  45.9592         28
  45.9778         27
  45.9963         32
  46.0149         39
  46.0335         31
  46.0521         35
  46.0707         24
  46.0892         28
  46.1078         40
  46.1264         28
  46.1450         32
  46.1635         32
  46.1821         28
  46.2007         39
  46.2193         31
  46.2378         31
  46.2564         30
  46.2750         37
  46.2936         20
  46.3121         28
  46.3307         36
  46.3493         46
  46.3679         18
  46.3864         35
  46.4050         26
  46.4236         30
  46.4422         38
  46.4607         28
  46.4793         32
  46.4979         33
  46.5165         37
  46.5350         30
  46.5536         28
  46.5722         33
  46.5908         33
  46.6093         39
  46.6279         41
  46.6465         34
  46.6651         25
  46.6836         37
  46.7022         21
  46.7208         30
  46.7394         41
  46.7579         30
  46.7765         35
  46.7951         25
  46.8137         37
  46.8323         38
  46.8508         46
  46.8694         31
  46.8880         31
  46.9066         43
  46.9251         35
  46.9437         27
  46.9623         37
  46.9809         36
  46.9994         27
  47.0180         18
  47.0366         16
  47.0552         27
  47.0737         45
  47.0923         28
  47.1109         26
  47.1295         27
  47.1480         43
  47.1666         25
  47.1852         31
  47.2038         35
  47.2223         24
  47.2409         32
  47.2595         30
  47.2781         32
  47.2966         25
  47.3152         43
  47.3338         33
  47.3524         30
  47.3709         34
  47.3895         48
  47.4081         33
  47.4267         34
  47.4452         29
  47.4638         30
  47.4824         30
  47.5010         29
  47.5195         22
  47.5381         34
  47.5567         35
  47.5753         27
  47.5939         35
  47.6124         36
  47.6310         35
  47.6496         34
  47.6682         49
  47.6867         31
  47.7053         32
  47.7239         36
  47.7425         27
  47.7610         30
  47.7796         24
  47.7982         35
  47.8168         41
  47.8353         31
  47.8539         31
  47.8725         39
  47.8911         38
  47.9096         32
  47.9282         28
  47.9468         23
  47.9654         31
  47.9839         27
  48.0025         37
  48.0211         26
  48.0397         33
  48.0582         26
  48.0768         23
  48.0954         39
  48.1140         22
  48.1325         33
  48.1511         28
  48.1697         41
  48.1883         16
  48.2068         34
  48.2254         42
  48.2440         34
  48.2626         29
  48.2811         40
  48.2997         26
  48.3183         41
  48.3369         28
  48.3555         29
  48.3740         34
  48.3926         34
  48.4112         42
  48.4298         33
  48.4483         26
  48.4669         31
  48.4855         17
  48.5041         27
  48.5226         24
  48.5412         34
  48.5598         23
  48.5784         37
  48.5969         41
  48.6155         27
  48.6341         40
  48.6527         30
  48.6712         24
  48.6898         27
  48.7084         34
  48.7270         26
  48.7455         26
  48.7641         28
  48.7827         40
  48.8013         28
  48.8198         34
  48.8384         33
  48.8570         31
  48.8756         36
  48.8941         35
  48.9127         43
  48.9313         43
  48.9499         54
  48.9684         61
  48.9870         55
  49.0056         41
  49.0242         47
  49.0427         36
  49.0613         40
  49.0799         44
  49.0985         40
  49.1171         45
  49.1356         37
  49.1542         36
  49.1728         28
  49.1914         40
  49.2099         32
  49.2285         34
  49.2471         34
  49.2657         23
  49.2842         29
  49.3028         33
  49.3214         22
  49.3400         35
  49.3585         37
  49.3771         32
  49.3957         35
  49.4143         26
  49.4328         33
  49.4514         28
  49.4700         29
  49.4886         31
  49.5071         34
  49.5257         30
  49.5443         20
  49.5629         15
  49.5814         26
  49.6000         25
  49.6186         30
  49.6372         34
  49.6557         30
  49.6743         33
  49.6929         28
  49.7115         25
  49.7300         22
  49.7486         34
  49.7672         28
  49.7858         35
  49.8043         30
  49.8229         24
  49.8415         30
  49.8601         36
  49.8786         29
  49.8972         36
  49.9158         13
  49.9344         32
  49.9530         31
  49.9715         27
  49.9901         29
  50.0087         29
  50.0273         34
  50.0458         29
  50.0644         32
  50.0830         34
  50.1016         36
  50.1201         26
  50.1387         32
  50.1573         27
  50.1759         36
  50.1944         36
  50.2130         39
  50.2316         28
  50.2502         29
  50.2687         20
  50.2873         38
  50.3059         40
  50.3245         39
  50.3430         27
  50.3616         21
  50.3802         37
  50.3988         30
  50.4173         22
  50.4359         35
  50.4545         33
  50.4731         39
  50.4916         25
  50.5102         31
  50.5288         38
  50.5474         29
  50.5659         36
  50.5845         31
  50.6031         29
  50.6217         23
  50.6402         35
  50.6588         28
  50.6774         25
  50.6960         25
  50.7146         28
  50.7331         29
  50.7517         27
  50.7703         26
  50.7889         25
  50.8074         37
  50.8260         39
  50.8446         33
  50.8632         25
  50.8817         20
  50.9003         22
  50.9189         32
  50.9375         30
  50.9560         20
  50.9746         29
  50.9932         32
  51.0118         15
  51.0303         23
  51.0489         37
  51.0675         29
  51.0861         36
  51.1046         33
  51.1232         27
  51.1418         38
  51.1604         29
  51.1789         30
  51.1975         38
  51.2161         20
  51.2347         21
  51.2532         26
  51.2718         28
  51.2904         23
  51.3090         36
  51.3275         28
  51.3461         34
  51.3647         35
  51.3833         23
  51.4018         33
  51.4204         50
  51.4390         34
  51.4576         33
  51.4762         28
  51.4947         40
  51.5133         24
  51.5319         27
  51.5505         33
  51.5690         40
  51.5876         26
  51.6062         36
  51.6248         32
  51.6433         25
  51.6619         32
  51.6805         39
  51.6991         28
  51.7176         35
  51.7362         28
  51.7548         38
  51.7734         38
  51.7919         36
  51.8105         37
  51.8291         30
  51.8477         39
  51.8662         28
  51.8848         36
  51.9034         32
  51.9220         22
  51.9405         22
  51.9591         24
  51.9777         45
  51.9963         29
  52.0148         24
  52.0334         30
  52.0520         26
  52.0706         33
  52.0891         25
  52.1077         28
  52.1263         30
  52.1449         15
  52.1634         30
  52.1820         22
  52.2006         25
  52.2192         23
  52.2378         31
  52.2563         24
  52.2749         27
  52.2935         25
  52.3121         35
  52.3306         29
  52.3492         27
  52.3678         27
  52.3864         41
  52.4049         33
  52.4235         26
  52.4421         42
  52.4607         38
  52.4792         23
  52.4978         21
  52.5164         28
  52.5350         25
  52.5535         33
  52.5721         30
  52.5907         35
  52.6093         27
  52.6278         30
  52.6464         30
  52.6650         16
  52.6836         28
  52.7021         34
  52.7207         29
  52.7393         43
  52.7579         24
  52.7764         24
  52.7950         33
  52.8136         24
  52.8322         19
  52.8507         36
  52.8693         36
  52.8879         35
  52.9065         29
  52.9250         26
  52.9436         33
  52.9622         33
  52.9808         34
  52.9994         44
  53.0179         29
  53.0365         37
  53.0551         31
  53.0737         27
  53.0922         29
  53.1108         23
  53.1294         18
  53.1480         25
  53.1665         22
  53.1851         32
  53.2037         34
  53.2223         32
  53.2408         24
  53.2594         33
  53.2780         28
  53.2966         25
  53.3151         27
  53.3337         35
  53.3523         29
  53.3709         28
  53.3894         32
  53.4080         31
  53.4266         24
  53.4452         26
  53.4637         31
  53.4823         30
  53.5009         40
  53.5195         25
  53.5380         26
  53.5566         29
  53.5752         20
  53.5938         29
  53.6123         30
  53.6309         37
  53.6495         29
  53.6681         24
  53.6866         30
  53.7052         32
  53.7238         24
  53.7424         19
  53.7610         28
  53.7795         39
  53.7981         31
  53.8167         29
  53.8353         39
  53.8538         24
  53.8724         37
  53.8910         37
  53.9096         31
  53.9281         24
  53.9467         35
  53.9653         37
  53.9839         42
  54.0024         41
  54.0210         39
  54.0396         41
  54.0582         41
  54.0767         36
  54.0953         34
  54.1139         32
  54.1325         37
  54.1510         42
  54.1696         30
  54.1882         33
  54.2068         29
  54.2253         33
  54.2439         26
  54.2625         32
  54.2811         19
  54.2996         34
  54.3182         40
  54.3368         36
  54.3554         31
  54.3739         36
  54.3925         22
  54.4111         25
  54.4297         23
  54.4482         16
  54.4668         26
  54.4854         34
  54.5040         42
  54.5225         34
  54.5411         29
  54.5597         29
  54.5783         24
  54.5969         26
  54.6154         22
  54.6340         28
  54.6526         26
  54.6712         33
  54.6897         26
  54.7083         27
  54.7269         22
  54.7455         25
  54.7640         19
  54.7826         27
  54.8012         17
  54.8198         25
  54.8383         26
  54.8569         23
  54.8755         34
  54.8941         25
  54.9126         25
  54.9312         28
  54.9498         25
  54.9684         24
  54.9869         27
  55.0055         20
  55.0241         18
  55.0427         31
  55.0612         25
  55.0798         32
  55.0984         30
  55.1170         25
  55.1355         36
  55.1541         20
  55.1727         25
  55.1913         22
  55.2098         25
  55.2284         29
  55.2470         20
  55.2656         24
  55.2841         33
  55.3027         20
  55.3213         37
  55.3399         21
  55.3585         26
  55.3770         22
  55.3956         25
  55.4142         31
  55.4328         33
  55.4513         23
  55.4699         32
  55.4885         25
  55.5071         30
  55.5256         28
  55.5442         27
  55.5628         33
  55.5814         26
  55.5999         24
  55.6185         36
  55.6371         31
  55.6557         20
  55.6742         21
  55.6928         24
  55.7114         26
  55.7300         35
  55.7485         35
  55.7671         28
  55.7857         25
  55.8043         20
  55.8228         21
  55.8414         25
  55.8600         32
  55.8786         27
  55.8971         31
  55.9157         26
  55.9343         37
  55.9529         26
  55.9714         29
  55.9900         27
  56.0086         28
  56.0272         34
  56.0457         26
  56.0643         17
  56.0829         32
  56.1015         36
  56.1201         21
  56.1386         32
  56.1572         34
  56.1758         18
  56.1944         38
  56.2129         23
  56.2315         25
  56.2501         33
  56.2687         36
  56.2872         28
  56.3058         31
  56.3244         38
  56.3430         32
  56.3615         31
  56.3801         26
  56.3987         37
  56.4173         26
  56.4358         33
  56.4544         21
  56.4730         26
  56.4916         29
  56.5101         30
  56.5287         25
  56.5473         26
  56.5659         30
  56.5844         26
  56.6030         31
  56.6216         40
  56.6402         33
  56.6587         33
  56.6773         25
  56.6959         26
  56.7145         24
  56.7330         30
  56.7516         30
  56.7702         33
  56.7888         26
  56.8073         25
  56.8259         31
  56.8445         23
  56.8631         29
  56.8817         27
  56.9002         24
  56.9188         25
  56.9374         31
  56.9560         22
  56.9745         28
  56.9931         16
  57.0117         26
  57.0303         36
  57.0488         25
  57.0674         21
  57.0860         27
  57.1046         30
  57.1231         25
  57.1417         26
  57.1603         29
  57.1789         25
  57.1974         39
  57.2160         26
  57.2346         27
  57.2532         26
  57.2717         22
  57.2903         26
  57.3089         33
  57.3275         30
  57.3460         25
  57.3646         32
  57.3832         20
  57.4018         23
  57.4203         27
  57.4389         27
  57.4575         23
  57.4761         26
  57.4946         25
  57.5132         27
  57.5318         28
  57.5504         30
  57.5689         30
  57.5875         34
  57.6061         30
  57.6247         32
  57.6433         19
  57.6618         29
  57.6804         23
  57.6990         33
  57.7176         22
  57.7361         31
  57.7547         26
  57.7733         30
  57.7919         30
  57.8104         32
  57.8290         30
  57.8476         35
  57.8662         35
  57.8847         25
  57.9033         26
  57.9219         27
  57.9405         25
  57.9590         29
  57.9776         21
  57.9962         22
  58.0148         22
  58.0333         34
  58.0519         19
  58.0705         29
  58.0891         27
  58.1076         28
  58.1262         31
  58.1448         25
  58.1634         28
  58.1819         25
  58.2005         29
  58.2191         28
  58.2377         29
  58.2562         24
  58.2748         24
  58.2934         20
  58.3120         20
  58.3305         24
  58.3491         27
  58.3677         31
  58.3863         33
  58.4049         26
  58.4234         28
  58.4420         29
  58.4606         25
  58.4792         31
  58.4977         18
  58.5163         33
  58.5349         32
  58.5535         21
  58.5720         29
  58.5906         28
  58.6092         31
  58.6278         17
  58.6463         24
  58.6649         30
  58.6835         34
  58.7021         27
  58.7206         22
  58.7392         20
  58.7578         25
  58.7764         23
  58.7949         14
  58.8135         25
  58.8321         20
  58.8507         25
  58.8692         32
  58.8878         23
  58.9064         19
  58.9250         31
  58.9435         17
  58.9621         32
  58.9807         27
  58.9993         21
  59.0178         37
  59.0364         22
  59.0550         29
  59.0736         34
  59.0921         18
  59.1107         37
  59.1293         25
  59.1479         29
  59.1664         23
  59.1850         27
  59.2036         25
  59.2222         34
  59.2408         23
  59.2593         21
  59.2779         24
  59.2965         17
  59.3151         29
  59.3336         30
  59.3522         40
  59.3708         21
  59.3894         26
  59.4079         23
  59.4265         26
  59.4451         25
  59.4637         20
  59.4822         23
  59.5008         33
  59.5194         25
  59.5380         30
  59.5565         31
  59.5751         29
  59.5937         19
  59.6123         24
  59.6308         25
  59.6494         32
  59.6680         29
  59.6866         26
  59.7051         27
  59.7237         21
  59.7423         33
  59.7609         18
  59.7794         32
  59.7980         26
  59.8166         44
  59.8352         23
  59.8537         28
  59.8723         18
  59.8909         22
  59.9095         27
  59.9280         26
  59.9466         31
  59.9652         37
  59.9838         27
  60.0024         22
