; (content of file Y:\Sam\Apurva-07-20-2022\puck4\ML_20220718_40_SJD_4_LaB6-2min.raw)
_FILEVERSION = 3
_SAMPLE = ML_20220718_40_SJD_4_LaB6-2min
_+SAMPLE = 
_SITE = USA
_USER = Administrator
_GONIOMETER_CODE = 20
; Goniometer : D8 theta/2theta, stage : Unknown
_ATTACHMENTS_CODE = 0
_GONIOMETER_RADIUS = 200.5
_FIXED_DIVSLIT = 0.6
_FIXED_SAMPLESLIT = 0
_SOLLER_SLITS = 2
_FIXED_DETSLIT = 9.55
_MONOCHROMATOR = 0
; Incident beam monochromator : None
_SOLLER_SLITS_2 = N
_THIN_FILM = N
_BETA_FILTER = Y
_FIXED_ANTISLIT = 5.89
_ANALYZER_CODE = 0
; Received beam analyzer : None
_DATEMEASURED = "26-Jul-2022 12:03:44"
_WL_UNIT = A
_WL1 = 1.5406
_WL2 = 1.54439
_WL3 = 1.39222
_WLRATIO = 0.5
_ANODE = Cu
_V4_INF_CREATOR = XRDWizard
_V4_INF_CREATOR_VERSION = V2.9.0.22
_V4_INF_WIZARD_VERSION = V2.9.0.22
_V4_INF_WIZARD_ADDINS = V2.9.0.22
_V4_INF_WIZARD_DOCTYPE = XRD
_V4_INF_OSUSER = McQueenLab
_V4_INF_USER = Administrator
_V4_INF_SITE = USA
_V4_INF_SAMPLEID = ML_20220718_40_SJD_4_LaB6-2min

; Data for range 1
_DRIVE = COUPLED
_STEPTIME = 5.64
_STEPSIZE = 0.0185756
_STEPMODE = C
_START = 5
_THETA = 2.5
_2THETA = 5
_KHI = 0
_PHI = 0
_X = 0
_Y = 0
_Z = 0
_DETECTOR = 5
; Detector type : Unknown
_DETECTORSLIT = unkn
_AUX1 = 0
_AUX2 = 0
_AUX3 = 0
_TIMESTARTED = 16
_TEMP_RATE = -1
_TEMP_DELAY = -1
_KV = 40
_MA = 40
_RANGE_WL = 1.5406
_3DPLANE = 0
_V4_ADDITIONALDETECTOR = 257
_V4_PSD2THETA = 3.3729
_V4_PSDCHANNEL1 = 0
_V4_PSDAPERTURE = 12.68
_V4_PSDTYPE = 5
_V4_PSDFIXED = 0
_V4_COUNTERS_MASK = 4096
_V4_DRIVES_MASK = 0
_V4_ENCODERS_MASK = 0
_2THETACOUNTS = 1
; 2THETA  PSD
   5.0000        133
   5.0186        123
   5.0372        138
   5.0557        133
   5.0743        118
   5.0929        122
   5.1115        123
   5.1300        118
   5.1486        107
   5.1672        130
   5.1858        125
   5.2043        116
   5.2229        125
   5.2415        135
   5.2601        131
   5.2786        136
   5.2972        110
   5.3158         97
   5.3344        130
   5.3529        142
   5.3715        123
   5.3901        123
   5.4087        115
   5.4272        130
   5.4458        115
   5.4644        113
   5.4830        112
   5.5015        104
   5.5201        109
   5.5387         91
   5.5573        137
   5.5758        111
   5.5944        114
   5.6130        103
   5.6316        120
   5.6501        118
   5.6687        112
   5.6873        100
   5.7059        100
   5.7244        119
   5.7430         94
   5.7616         93
   5.7802         83
   5.7988        102
   5.8173        113
   5.8359        120
   5.8545        119
   5.8731        101
   5.8916        103
   5.9102        108
   5.9288         84
   5.9474         98
   5.9659         91
   5.9845         94
   6.0031        113
   6.0217        103
   6.0402        122
   6.0588         94
   6.0774         95
   6.0960        100
   6.1145         92
   6.1331         95
   6.1517         92
   6.1703         95
   6.1888        107
   6.2074         98
   6.2260         96
   6.2446        109
   6.2631        105
   6.2817         81
   6.3003         96
   6.3189         95
   6.3374         87
   6.3560        109
   6.3746         95
   6.3932         77
   6.4117        101
   6.4303         91
   6.4489         99
   6.4675         86
   6.4860         80
   6.5046         87
   6.5232         85
   6.5418         91
   6.5604         81
   6.5789         82
   6.5975         95
   6.6161         78
   6.6347         96
   6.6532         95
   6.6718         94
   6.6904         82
   6.7090        106
   6.7275         78
   6.7461         82
   6.7647         73
   6.7833         78
   6.8018         85
   6.8204         99
   6.8390         75
   6.8576         82
   6.8761         90
   6.8947        101
   6.9133         87
   6.9319         89
   6.9504         83
   6.9690         83
   6.9876         92
   7.0062         95
   7.0247         72
   7.0433         85
   7.0619         85
   7.0805         98
   7.0990         81
   7.1176         72
   7.1362         69
   7.1548         87
   7.1733         60
   7.1919         79
   7.2105         74
   7.2291         86
   7.2476         73
   7.2662         69
   7.2848        116
   7.3034         83
   7.3220         85
   7.3405         73
   7.3591         91
   7.3777         75
   7.3963         77
   7.4148         86
   7.4334         78
   7.4520         79
   7.4706         74
   7.4891         75
   7.5077         98
   7.5263         82
   7.5449         76
   7.5634         80
   7.5820         88
   7.6006         98
   7.6192         88
   7.6377         98
   7.6563         96
   7.6749         91
   7.6935         92
   7.7120        108
   7.7306         94
   7.7492        107
   7.7678         97
   7.7863        115
   7.8049         98
   7.8235         98
   7.8421         98
   7.8606         94
   7.8792         90
   7.8978         90
   7.9164         96
   7.9349         89
   7.9535        107
   7.9721         88
   7.9907         92
   8.0092         93
   8.0278        110
   8.0464         86
   8.0650         96
   8.0835         91
   8.1021         95
   8.1207         93
   8.1393        101
   8.1579         91
   8.1764         92
   8.1950         87
   8.2136         90
   8.2322         87
   8.2507        102
   8.2693         89
   8.2879        101
   8.3065         96
   8.3250         98
   8.3436         93
   8.3622         93
   8.3808         97
   8.3993        108
   8.4179         87
   8.4365        102
   8.4551        100
   8.4736        105
   8.4922         90
   8.5108         85
   8.5294         99
   8.5479        101
   8.5665         93
   8.5851        110
   8.6037        105
   8.6222         94
   8.6408         86
   8.6594        106
   8.6780         98
   8.6965         96
   8.7151        101
   8.7337         89
   8.7523         91
   8.7708        109
   8.7894        115
   8.8080         98
   8.8266         96
   8.8451        104
   8.8637        124
   8.8823        102
   8.9009        108
   8.9195        113
   8.9380         98
   8.9566         96
   8.9752        108
   8.9938        114
   9.0123        114
   9.0309         95
   9.0495        102
   9.0681        113
   9.0866         91
   9.1052        100
   9.1238        132
   9.1424        115
   9.1609        120
   9.1795        107
   9.1981        106
   9.2167        103
   9.2352        116
   9.2538        107
   9.2724        123
   9.2910        101
   9.3095        122
   9.3281        101
   9.3467        121
   9.3653        109
   9.3838        117
   9.4024        121
   9.4210        119
   9.4396        111
   9.4581        105
   9.4767        108
   9.4953        141
   9.5139        110
   9.5324        109
   9.5510        102
   9.5696        130
   9.5882         86
   9.6067         97
   9.6253        112
   9.6439        104
   9.6625        124
   9.6811        118
   9.6996        125
   9.7182        128
   9.7368        113
   9.7554        115
   9.7739        119
   9.7925        112
   9.8111        121
   9.8297        119
   9.8482        126
   9.8668        128
   9.8854        111
   9.9040        110
   9.9225        114
   9.9411        116
   9.9597        110
   9.9783        141
   9.9968        109
  10.0154        129
  10.0340        135
  10.0526        129
  10.0711        106
  10.0897        117
  10.1083        111
  10.1269        115
  10.1454        120
  10.1640        128
  10.1826        123
  10.2012        123
  10.2197        138
  10.2383        128
  10.2569        108
  10.2755        127
  10.2940        114
  10.3126        140
  10.3312        134
  10.3498        136
  10.3683        118
  10.3869        124
  10.4055        124
  10.4241        113
  10.4427        128
  10.4612        113
  10.4798        121
  10.4984        132
  10.5170        115
  10.5355        130
  10.5541        119
  10.5727        124
  10.5913        130
  10.6098        126
  10.6284        122
  10.6470        143
  10.6656        123
  10.6841        116
  10.7027        118
  10.7213        118
  10.7399        137
  10.7584        129
  10.7770        136
  10.7956        124
  10.8142        134
  10.8327        122
  10.8513        132
  10.8699        130
  10.8885        114
  10.9070        128
  10.9256        133
  10.9442        130
  10.9628        131
  10.9813        125
  10.9999        103
  11.0185        111
  11.0371        133
  11.0556        144
  11.0742        106
  11.0928        104
  11.1114        132
  11.1299        119
  11.1485        105
  11.1671        131
  11.1857        121
  11.2043        111
  11.2228        116
  11.2414        130
  11.2600        111
  11.2786         93
  11.2971        112
  11.3157        112
  11.3343        115
  11.3529        118
  11.3714        116
  11.3900        117
  11.4086        128
  11.4272        111
  11.4457        115
  11.4643        138
  11.4829        118
  11.5015        137
  11.5200        122
  11.5386        115
  11.5572        116
  11.5758        115
  11.5943        122
  11.6129        121
  11.6315        119
  11.6501        117
  11.6686        101
  11.6872        110
  11.7058        120
  11.7244        124
  11.7429        106
  11.7615        130
  11.7801        140
  11.7987        126
  11.8172        122
  11.8358        125
  11.8544        100
  11.8730        123
  11.8915        110
  11.9101        111
  11.9287        117
  11.9473        125
  11.9659        112
  11.9844        114
  12.0030        113
  12.0216        102
  12.0402        111
  12.0587        133
  12.0773        122
  12.0959        114
  12.1145        134
  12.1330        118
  12.1516        111
  12.1702        128
  12.1888        113
  12.2073        118
  12.2259        105
  12.2445        106
  12.2631        119
  12.2816        107
  12.3002        124
  12.3188        134
  12.3374        111
  12.3559        113
  12.3745        103
  12.3931        123
  12.4117        113
  12.4302        110
  12.4488        118
  12.4674        124
  12.4860        115
  12.5045        111
  12.5231        111
  12.5417        102
  12.5603        113
  12.5788        118
  12.5974        110
  12.6160        110
  12.6346         99
  12.6531        117
  12.6717        115
  12.6903         93
  12.7089        114
  12.7274        107
  12.7460        108
  12.7646         99
  12.7832        125
  12.8018        118
  12.8203        116
  12.8389        101
  12.8575        118
  12.8761        101
  12.8946         96
  12.9132        104
  12.9318        128
  12.9504        130
  12.9689        107
  12.9875        105
  13.0061         91
  13.0247        114
  13.0432        106
  13.0618         95
  13.0804        110
  13.0990        102
  13.1175         78
  13.1361        112
  13.1547        126
  13.1733        111
  13.1918        102
  13.2104        114
  13.2290        107
  13.2476        115
  13.2661        118
  13.2847        108
  13.3033         91
  13.3219         85
  13.3404        101
  13.3590        103
  13.3776        107
  13.3962         86
  13.4147        106
  13.4333        100
  13.4519        104
  13.4705        100
  13.4890         88
  13.5076         97
  13.5262        104
  13.5448         96
  13.5634         99
  13.5819        106
  13.6005        108
  13.6191         76
  13.6377         96
  13.6562        116
  13.6748         98
  13.6934        104
  13.7120        119
  13.7305        101
  13.7491         83
  13.7677        101
  13.7863        108
  13.8048         98
  13.8234        109
  13.8420         95
  13.8606         84
  13.8791         85
  13.8977         98
  13.9163         98
  13.9349        102
  13.9534        106
  13.9720         96
  13.9906        107
  14.0092        101
  14.0277         91
  14.0463        102
  14.0649        103
  14.0835         94
  14.1020        103
  14.1206         63
  14.1392         85
  14.1578        106
  14.1763         86
  14.1949         99
  14.2135         99
  14.2321         83
  14.2506         79
  14.2692         94
  14.2878        109
  14.3064         86
  14.3250         85
  14.3435         69
  14.3621         85
  14.3807         78
  14.3993         96
  14.4178        103
  14.4364         94
  14.4550        104
  14.4736         98
  14.4921         91
  14.5107         86
  14.5293        103
  14.5479         90
  14.5664         95
  14.5850         83
  14.6036         77
  14.6222        100
  14.6407         88
  14.6593         84
  14.6779         92
  14.6965         75
  14.7150         92
  14.7336         76
  14.7522         85
  14.7708         85
  14.7893         86
  14.8079         81
  14.8265         72
  14.8451         90
  14.8636        104
  14.8822         93
  14.9008         77
  14.9194         92
  14.9379         87
  14.9565         78
  14.9751         74
  14.9937         93
  15.0122         81
  15.0308         96
  15.0494         82
  15.0680         95
  15.0866         89
  15.1051        102
  15.1237         87
  15.1423         87
  15.1609         74
  15.1794         87
  15.1980         85
  15.2166         96
  15.2352         81
  15.2537         78
  15.2723         81
  15.2909         87
  15.3095         85
  15.3280         73
  15.3466         71
  15.3652         75
  15.3838         81
  15.4023         88
  15.4209         68
  15.4395         88
  15.4581         79
  15.4766         88
  15.4952         94
  15.5138         85
  15.5324         87
  15.5509         85
  15.5695         89
  15.5881        100
  15.6067         70
  15.6252         72
  15.6438         93
  15.6624         95
  15.6810         74
  15.6995         86
  15.7181         80
  15.7367         89
  15.7553         99
  15.7738         98
  15.7924         83
  15.8110         82
  15.8296         97
  15.8482         75
  15.8667         72
  15.8853         81
  15.9039         84
  15.9225         76
  15.9410         88
  15.9596         86
  15.9782         89
  15.9968         99
  16.0153         69
  16.0339         90
  16.0525         72
  16.0711         93
  16.0896         77
  16.1082         94
  16.1268        111
  16.1454         79
  16.1639         69
  16.1825         90
  16.2011         78
  16.2197         71
  16.2382         79
  16.2568        103
  16.2754        100
  16.2940         82
  16.3125         75
  16.3311         89
  16.3497         95
  16.3683         79
  16.3868         94
  16.4054         71
  16.4240         80
  16.4426         76
  16.4611         85
  16.4797         64
  16.4983         75
  16.5169         86
  16.5354        107
  16.5540         78
  16.5726         83
  16.5912         79
  16.6097         91
  16.6283         84
  16.6469         54
  16.6655         63
  16.6841         83
  16.7026         99
  16.7212         81
  16.7398         82
  16.7584         87
  16.7769        103
  16.7955         75
  16.8141         94
  16.8327         96
  16.8512         63
  16.8698         83
  16.8884         66
  16.9070         70
  16.9255         80
  16.9441         60
  16.9627         73
  16.9813         91
  16.9998         89
  17.0184         79
  17.0370         78
  17.0556         97
  17.0741         85
  17.0927         68
  17.1113         69
  17.1299         82
  17.1484        106
  17.1670         72
  17.1856         83
  17.2042         79
  17.2227         69
  17.2413         88
  17.2599         82
  17.2785         97
  17.2970         73
  17.3156         69
  17.3342         84
  17.3528         81
  17.3713         63
  17.3899         76
  17.4085         85
  17.4271         90
  17.4457         72
  17.4642         88
  17.4828         78
  17.5014         81
  17.5200        106
  17.5385         80
  17.5571         82
  17.5757         80
  17.5943         83
  17.6128         76
  17.6314         73
  17.6500         93
  17.6686         66
  17.6871         78
  17.7057         72
  17.7243         72
  17.7429         86
  17.7614         75
  17.7800         76
  17.7986         77
  17.8172         89
  17.8357         79
  17.8543         77
  17.8729         81
  17.8915         93
  17.9100         80
  17.9286         82
  17.9472         82
  17.9658         78
  17.9843         94
  18.0029         88
  18.0215         86
  18.0401         85
  18.0586         75
  18.0772         67
  18.0958         89
  18.1144         89
  18.1329         84
  18.1515         70
  18.1701         79
  18.1887         87
  18.2073         95
  18.2258         73
  18.2444         94
  18.2630         76
  18.2816         89
  18.3001         82
  18.3187         84
  18.3373         97
  18.3559         81
  18.3744         74
  18.3930         88
  18.4116         74
  18.4302         84
  18.4487         72
  18.4673         78
  18.4859         83
  18.5045         71
  18.5230         75
  18.5416         81
  18.5602         89
  18.5788         80
  18.5973         84
  18.6159         82
  18.6345         75
  18.6531         85
  18.6716         93
  18.6902         90
  18.7088         98
  18.7274         83
  18.7459         77
  18.7645        113
  18.7831         86
  18.8017         78
  18.8202         80
  18.8388         92
  18.8574         73
  18.8760         79
  18.8945         89
  18.9131         92
  18.9317         84
  18.9503         98
  18.9689         75
  18.9874         84
  19.0060         87
  19.0246         75
  19.0432         85
  19.0617         75
  19.0803         73
  19.0989         81
  19.1175         92
  19.1360         87
  19.1546         72
  19.1732         69
  19.1918         76
  19.2103         81
  19.2289         70
  19.2475         87
  19.2661         87
  19.2846         78
  19.3032        102
  19.3218         95
  19.3404         89
  19.3589         84
  19.3775         91
  19.3961         86
  19.4147         85
  19.4332         90
  19.4518         77
  19.4704         93
  19.4890         91
  19.5075         83
  19.5261         86
  19.5447         80
  19.5633         90
  19.5818         96
  19.6004        109
  19.6190         90
  19.6376         80
  19.6561         88
  19.6747         96
  19.6933         91
  19.7119         98
  19.7305        115
  19.7490         94
  19.7676         91
  19.7862         90
  19.8048         88
  19.8233        101
  19.8419         82
  19.8605         88
  19.8791        104
  19.8976         95
  19.9162         89
  19.9348         94
  19.9534         94
  19.9719         79
  19.9905         71
  20.0091         70
  20.0277         80
  20.0462        104
  20.0648         89
  20.0834         89
  20.1020         97
  20.1205         90
  20.1391        105
  20.1577         98
  20.1763         90
  20.1948         89
  20.2134         89
  20.2320         94
  20.2506         91
  20.2691         85
  20.2877         88
  20.3063         95
  20.3249         96
  20.3434         84
  20.3620        100
  20.3806         82
  20.3992         96
  20.4177        104
  20.4363         82
  20.4549         95
  20.4735         79
  20.4921        103
  20.5106         84
  20.5292        112
  20.5478         96
  20.5664         86
  20.5849         88
  20.6035        101
  20.6221         81
  20.6407         84
  20.6592        107
  20.6778        104
  20.6964         92
  20.7150         80
  20.7335         79
  20.7521         87
  20.7707        111
  20.7893         91
  20.8078         80
  20.8264        103
  20.8450        101
  20.8636        102
  20.8821         96
  20.9007         83
  20.9193         94
  20.9379         95
  20.9564         99
  20.9750         84
  20.9936         92
  21.0122         98
  21.0307         99
  21.0493        101
  21.0679        114
  21.0865        118
  21.1050        100
  21.1236        115
  21.1422        120
  21.1608         99
  21.1793        132
  21.1979        128
  21.2165        161
  21.2351        168
  21.2537        164
  21.2722        148
  21.2908        163
  21.3094        166
  21.3280        209
  21.3465        204
  21.3651        261
  21.3837        231
  21.4023        206
  21.4208        197
  21.4394        163
  21.4580        121
  21.4766        119
  21.4951        113
  21.5137        105
  21.5323        102
  21.5509        110
  21.5694         97
  21.5880        106
  21.6066        112
  21.6252         96
  21.6437         95
  21.6623         95
  21.6809         97
  21.6995         91
  21.7180         85
  21.7366        106
  21.7552        104
  21.7738        122
  21.7923         89
  21.8109        100
  21.8295        109
  21.8481         91
  21.8666         91
  21.8852         89
  21.9038        104
  21.9224        100
  21.9409        107
  21.9595        108
  21.9781         84
  21.9967        100
  22.0152         80
  22.0338        104
  22.0524         88
  22.0710         91
  22.0896        111
  22.1081        107
  22.1267         74
  22.1453        111
  22.1639        104
  22.1824         95
  22.2010         81
  22.2196        102
  22.2382        101
  22.2567        119
  22.2753        102
  22.2939        104
  22.3125         86
  22.3310         94
  22.3496         85
  22.3682        109
  22.3868        100
  22.4053        102
  22.4239        103
  22.4425        100
  22.4611         88
  22.4796        106
  22.4982         99
  22.5168        112
  22.5354        113
  22.5539         98
  22.5725        115
  22.5911        102
  22.6097        100
  22.6282        103
  22.6468         90
  22.6654        116
  22.6840         94
  22.7025         98
  22.7211         98
  22.7397         98
  22.7583        103
  22.7768        101
  22.7954         97
  22.8140         99
  22.8326         81
  22.8512         94
  22.8697         76
  22.8883         85
  22.9069        104
  22.9255        103
  22.9440         98
  22.9626        114
  22.9812        108
  22.9998        104
  23.0183        102
  23.0369         97
  23.0555         86
  23.0741        100
  23.0926         87
  23.1112         97
  23.1298         88
  23.1484        111
  23.1669         97
  23.1855        106
  23.2041        111
  23.2227         86
  23.2412        108
  23.2598         98
  23.2784         83
  23.2970         98
  23.3155         96
  23.3341         97
  23.3527        108
  23.3713         94
  23.3898        100
  23.4084        107
  23.4270        101
  23.4456        113
  23.4641        116
  23.4827        106
  23.5013         91
  23.5199        111
  23.5384        109
  23.5570        107
  23.5756         97
  23.5942         93
  23.6128        120
  23.6313        110
  23.6499         95
  23.6685        111
  23.6871         85
  23.7056         75
  23.7242         97
  23.7428        100
  23.7614        101
  23.7799        102
  23.7985         98
  23.8171        106
  23.8357         96
  23.8542         79
  23.8728         99
  23.8914         98
  23.9100        126
  23.9285         92
  23.9471        102
  23.9657        108
  23.9843         85
  24.0028        105
  24.0214        108
  24.0400         96
  24.0586        103
  24.0771         97
  24.0957         91
  24.1143        115
  24.1329        108
  24.1514        109
  24.1700         98
  24.1886        103
  24.2072        104
  24.2257        106
  24.2443        108
  24.2629        100
  24.2815        112
  24.3000        121
  24.3186        122
  24.3372        126
  24.3558        116
  24.3744        104
  24.3929        105
  24.4115         97
  24.4301         93
  24.4487        108
  24.4672        112
  24.4858        109
  24.5044        110
  24.5230        106
  24.5415         99
  24.5601        108
  24.5787         92
  24.5973        110
  24.6158        114
  24.6344        102
  24.6530        103
  24.6716        101
  24.6901         96
  24.7087        117
  24.7273        112
  24.7459         81
  24.7644        105
  24.7830        101
  24.8016        101
  24.8202         88
  24.8387        110
  24.8573        110
  24.8759         89
  24.8945        121
  24.9130         94
  24.9316        102
  24.9502        114
  24.9688         94
  24.9873        112
  25.0059        117
  25.0245        103
  25.0431        113
  25.0616        114
  25.0802        111
  25.0988         97
  25.1174         76
  25.1360         98
  25.1545         99
  25.1731        101
  25.1917        112
  25.2103        105
  25.2288        106
  25.2474        110
  25.2660         97
  25.2846         91
  25.3031         78
  25.3217         96
  25.3403         92
  25.3589        107
  25.3774         89
  25.3960         84
  25.4146         92
  25.4332         94
  25.4517        110
  25.4703        105
  25.4889         92
  25.5075        114
  25.5260        110
  25.5446         91
  25.5632         97
  25.5818        109
  25.6003         96
  25.6189        101
  25.6375        102
  25.6561        113
  25.6746         96
  25.6932        114
  25.7118         98
  25.7304        109
  25.7489         99
  25.7675         94
  25.7861         87
  25.8047         91
  25.8232         93
  25.8418         92
  25.8604         88
  25.8790        112
  25.8976         94
  25.9161         87
  25.9347         97
  25.9533        108
  25.9719         96
  25.9904         94
  26.0090         89
  26.0276         96
  26.0462        106
  26.0647        105
  26.0833        110
  26.1019        119
  26.1205         95
  26.1390        108
  26.1576        105
  26.1762         96
  26.1948         98
  26.2133        106
  26.2319        108
  26.2505        107
  26.2691        100
  26.2876         82
  26.3062         96
  26.3248        116
  26.3434        104
  26.3619         83
  26.3805         90
  26.3991        117
  26.4177        101
  26.4362         87
  26.4548        115
  26.4734        107
  26.4920         91
  26.5105         91
  26.5291        112
  26.5477         89
  26.5663        111
  26.5848         93
  26.6034         95
  26.6220         88
  26.6406         83
  26.6591        114
  26.6777         87
  26.6963        101
  26.7149        108
  26.7335        106
  26.7520         89
  26.7706        102
  26.7892         93
  26.8078         97
  26.8263         86
  26.8449        101
  26.8635         75
  26.8821         83
  26.9006        100
  26.9192         76
  26.9378         93
  26.9564         86
  26.9749         86
  26.9935        110
  27.0121        108
  27.0307         84
  27.0492         93
  27.0678         97
  27.0864        108
  27.1050         97
  27.1235        115
  27.1421         94
  27.1607        108
  27.1793        104
  27.1978        127
  27.2164        128
  27.2350        124
  27.2536        128
  27.2721        122
  27.2907        123
  27.3093        105
  27.3279         99
  27.3464         95
  27.3650         95
  27.3836         83
  27.4022         88
  27.4207         92
  27.4393        103
  27.4579         99
  27.4765         90
  27.4951         93
  27.5136         95
  27.5322         94
  27.5508         90
  27.5694         84
  27.5879         84
  27.6065        108
  27.6251         98
  27.6437         82
  27.6622         89
  27.6808        100
  27.6994         93
  27.7180         85
  27.7365         89
  27.7551         68
  27.7737         93
  27.7923         85
  27.8108         84
  27.8294         89
  27.8480        102
  27.8666         99
  27.8851         83
  27.9037         74
  27.9223         82
  27.9409        112
  27.9594         76
  27.9780         88
  27.9966         90
  28.0152         96
  28.0337         88
  28.0523         83
  28.0709         84
  28.0895         86
  28.1080         89
  28.1266         84
  28.1452         88
  28.1638         85
  28.1823         92
  28.2009         95
  28.2195         74
  28.2381         81
  28.2567         86
  28.2752         76
  28.2938         78
  28.3124         91
  28.3310         93
  28.3495         92
  28.3681         88
  28.3867         97
  28.4053         79
  28.4238         95
  28.4424        102
  28.4610         85
  28.4796         78
  28.4981         92
  28.5167         90
  28.5353         90
  28.5539         89
  28.5724         76
  28.5910         97
  28.6096         83
  28.6282        100
  28.6467         92
  28.6653         78
  28.6839         66
  28.7025         71
  28.7210         75
  28.7396         86
  28.7582         93
  28.7768         78
  28.7953         93
  28.8139         77
  28.8325         81
  28.8511         96
  28.8696         82
  28.8882         81
  28.9068        100
  28.9254         74
  28.9439         95
  28.9625         82
  28.9811         77
  28.9997         73
  29.0183         85
  29.0368         74
  29.0554         72
  29.0740         85
  29.0926         75
  29.1111         75
  29.1297         59
  29.1483         82
  29.1669         87
  29.1854         92
  29.2040         67
  29.2226         68
  29.2412         91
  29.2597        102
  29.2783         79
  29.2969         78
  29.3155         82
  29.3340         87
  29.3526         90
  29.3712         78
  29.3898         79
  29.4083         86
  29.4269         72
  29.4455         91
  29.4641         87
  29.4826         68
  29.5012         87
  29.5198         84
  29.5384         87
  29.5569         84
  29.5755         84
  29.5941         68
  29.6127         89
  29.6312         69
  29.6498         86
  29.6684         94
  29.6870         66
  29.7055         90
  29.7241         89
  29.7427         74
  29.7613         77
  29.7799         78
  29.7984         70
  29.8170         87
  29.8356         70
  29.8542         91
  29.8727         85
  29.8913         74
  29.9099         77
  29.9285         66
  29.9470         82
  29.9656         86
  29.9842         86
  30.0028         89
  30.0213         79
  30.0399         84
  30.0585         93
  30.0771         83
  30.0956         86
  30.1142         71
  30.1328         78
  30.1514         75
  30.1699         85
  30.1885         80
  30.2071         84
  30.2257         93
  30.2442         73
  30.2628        100
  30.2814         86
  30.3000         90
  30.3185         94
  30.3371         91
  30.3557        110
  30.3743        158
  30.3928        169
  30.4114        146
  30.4300        102
  30.4486        108
  30.4671        143
  30.4857        104
  30.5043         82
  30.5229         82
  30.5415         83
  30.5600         82
  30.5786         81
  30.5972         86
  30.6158         66
  30.6343         90
  30.6529         74
  30.6715         66
  30.6901         72
  30.7086         68
  30.7272         82
  30.7458         81
  30.7644         72
  30.7829         70
  30.8015         62
  30.8201         76
  30.8387         84
  30.8572         62
  30.8758         58
  30.8944         70
  30.9130         72
  30.9315         81
  30.9501         70
  30.9687         90
  30.9873         66
  31.0058         65
  31.0244         73
  31.0430         79
  31.0616         78
  31.0801         61
  31.0987         77
  31.1173         67
  31.1359         59
  31.1544         60
  31.1730         83
  31.1916         77
  31.2102         60
  31.2287         75
  31.2473         65
  31.2659         69
  31.2845         79
  31.3030         74
  31.3216         78
  31.3402         62
  31.3588         68
  31.3774         69
  31.3959         60
  31.4145         79
  31.4331         65
  31.4517         65
  31.4702         70
  31.4888         83
  31.5074         85
  31.5260         74
  31.5445         67
  31.5631         85
  31.5817         65
  31.6003         63
  31.6188         76
  31.6374         64
  31.6560         51
  31.6746         65
  31.6931         73
  31.7117         70
  31.7303         68
  31.7489         63
  31.7674         59
  31.7860         76
  31.8046         75
  31.8232         71
  31.8417         75
  31.8603         66
  31.8789         68
  31.8975         74
  31.9160         62
  31.9346         68
  31.9532         67
  31.9718         71
  31.9903         55
  32.0089         49
  32.0275         60
  32.0461         62
  32.0646         67
  32.0832         77
  32.1018         62
  32.1204         66
  32.1390         59
  32.1575         67
  32.1761         69
  32.1947         57
  32.2133         58
  32.2318         59
  32.2504         63
  32.2690         60
  32.2876         66
  32.3061         75
  32.3247         67
  32.3433         58
  32.3619         69
  32.3804         61
  32.3990         62
  32.4176         66
  32.4362         65
  32.4547         83
  32.4733         61
  32.4919        102
  32.5105         67
  32.5290         76
  32.5476         73
  32.5662         78
  32.5848         76
  32.6033         78
  32.6219         80
  32.6405         65
  32.6591         75
  32.6776         67
  32.6962         80
  32.7148         71
  32.7334         77
  32.7519         69
  32.7705         61
  32.7891         56
  32.8077         67
  32.8262         57
  32.8448         61
  32.8634         64
  32.8820         57
  32.9006         66
  32.9191         61
  32.9377         77
  32.9563         54
  32.9749         60
  32.9934         76
  33.0120         61
  33.0306         67
  33.0492         80
  33.0677         50
  33.0863         50
  33.1049         64
  33.1235         50
  33.1420         66
  33.1606         65
  33.1792         54
  33.1978         70
  33.2163         60
  33.2349         61
  33.2535         53
  33.2721         48
  33.2906         61
  33.3092         66
  33.3278         52
  33.3464         54
  33.3649         57
  33.3835         51
  33.4021         61
  33.4207         73
  33.4392         71
  33.4578         56
  33.4764         46
  33.4950         73
  33.5135         62
  33.5321         60
  33.5507         64
  33.5693         62
  33.5878         78
  33.6064         60
  33.6250         53
  33.6436         55
  33.6622         64
  33.6807         51
  33.6993         58
  33.7179         60
  33.7365         56
  33.7550         83
  33.7736         66
  33.7922         75
  33.8108         59
  33.8293         51
  33.8479         63
  33.8665         58
  33.8851         58
  33.9036         59
  33.9222         70
  33.9408         65
  33.9594         61
  33.9779         61
  33.9965         59
  34.0151         52
  34.0337         50
  34.0522         49
  34.0708         56
  34.0894         63
  34.1080         61
  34.1265         60
  34.1451         58
  34.1637         59
  34.1823         62
  34.2008         62
  34.2194         41
  34.2380         61
  34.2566         52
  34.2751         64
  34.2937         50
  34.3123         50
  34.3309         59
  34.3494         69
  34.3680         53
  34.3866         50
  34.4052         65
  34.4238         52
  34.4423         49
  34.4609         58
  34.4795         71
  34.4981         52
  34.5166         51
  34.5352         48
  34.5538         66
  34.5724         73
  34.5909         65
  34.6095         65
  34.6281         71
  34.6467         72
  34.6652         60
  34.6838         73
  34.7024         95
  34.7210         76
  34.7395         89
  34.7581         82
  34.7767         77
  34.7953         75
  34.8138         55
  34.8324         72
  34.8510         71
  34.8696         69
  34.8881         56
  34.9067         64
  34.9253         72
  34.9439         57
  34.9624         59
  34.9810         59
  34.9996         49
  35.0182         51
  35.0367         64
  35.0553         57
  35.0739         45
  35.0925         50
  35.1110         56
  35.1296         48
  35.1482         67
  35.1668         47
  35.1854         44
  35.2039         55
  35.2225         58
  35.2411         50
  35.2597         47
  35.2782         51
  35.2968         63
  35.3154         45
  35.3340         59
  35.3525         50
  35.3711         48
  35.3897         56
  35.4083         51
  35.4268         52
  35.4454         46
  35.4640         58
  35.4826         54
  35.5011         40
  35.5197         52
  35.5383         35
  35.5569         46
  35.5754         60
  35.5940         58
  35.6126         56
  35.6312         58
  35.6497         49
  35.6683         57
  35.6869         48
  35.7055         36
  35.7240         59
  35.7426         49
  35.7612         53
  35.7798         54
  35.7983         58
  35.8169         37
  35.8355         49
  35.8541         43
  35.8726         56
  35.8912         48
  35.9098         59
  35.9284         61
  35.9469         51
  35.9655         47
  35.9841         51
  36.0027         50
  36.0213         43
  36.0398         50
  36.0584         41
  36.0770         59
  36.0956         49
  36.1141         60
  36.1327         35
  36.1513         37
  36.1699         53
  36.1884         56
  36.2070         53
  36.2256         52
  36.2442         50
  36.2627         47
  36.2813         59
  36.2999         56
  36.3185         39
  36.3370         46
  36.3556         47
  36.3742         45
  36.3928         58
  36.4113         66
  36.4299         56
  36.4485         43
  36.4671         50
  36.4856         55
  36.5042         54
  36.5228         46
  36.5414         42
  36.5599         47
  36.5785         43
  36.5971         48
  36.6157         52
  36.6342         52
  36.6528         49
  36.6714         35
  36.6900         42
  36.7085         73
  36.7271         51
  36.7457         53
  36.7643         47
  36.7829         38
  36.8014         54
  36.8200         45
  36.8386         51
  36.8572         37
  36.8757         51
  36.8943         43
  36.9129         39
  36.9315         38
  36.9500         35
  36.9686         46
  36.9872         42
  37.0058         54
  37.0243         46
  37.0429         47
  37.0615         56
  37.0801         50
  37.0986         44
  37.1172         44
  37.1358         54
  37.1544         48
  37.1729         49
  37.1915         42
  37.2101         52
  37.2287         40
  37.2472         53
  37.2658         55
  37.2844         45
  37.3030         58
  37.3215         57
  37.3401         49
  37.3587         57
  37.3773         50
  37.3958         56
  37.4144         72
  37.4330         79
  37.4516         71
  37.4701         83
  37.4887         54
  37.5073         55
  37.5259         49
  37.5445         68
  37.5630         58
  37.5816         48
  37.6002         50
  37.6188         40
  37.6373         35
  37.6559         59
  37.6745         54
  37.6931         43
  37.7116         46
  37.7302         40
  37.7488         49
  37.7674         46
  37.7859         36
  37.8045         46
  37.8231         42
  37.8417         49
  37.8602         43
  37.8788         42
  37.8974         44
  37.9160         44
  37.9345         44
  37.9531         44
  37.9717         46
  37.9903         50
  38.0088         39
  38.0274         50
  38.0460         32
  38.0646         43
  38.0831         32
  38.1017         46
  38.1203         43
  38.1389         47
  38.1574         46
  38.1760         48
  38.1946         52
  38.2132         46
  38.2317         40
  38.2503         38
  38.2689         39
  38.2875         41
  38.3061         34
  38.3246         40
  38.3432         35
  38.3618         48
  38.3804         42
  38.3989         48
  38.4175         49
  38.4361         33
  38.4547         47
  38.4732         35
  38.4918         46
  38.5104         39
  38.5290         41
  38.5475         42
  38.5661         41
  38.5847         33
  38.6033         32
  38.6218         49
  38.6404         47
  38.6590         40
  38.6776         37
  38.6961         41
  38.7147         34
  38.7333         34
  38.7519         35
  38.7704         30
  38.7890         31
  38.8076         47
  38.8262         54
  38.8447         51
  38.8633         51
  38.8819         40
  38.9005         50
  38.9190         48
  38.9376         44
  38.9562         42
  38.9748         38
  38.9933         31
  39.0119         43
  39.0305         45
  39.0491         36
  39.0677         33
  39.0862         32
  39.1048         46
  39.1234         41
  39.1420         47
  39.1605         42
  39.1791         39
  39.1977         46
  39.2163         38
  39.2348         39
  39.2534         34
  39.2720         41
  39.2906         40
  39.3091         36
  39.3277         46
  39.3463         39
  39.3649         30
  39.3834         39
  39.4020         39
  39.4206         41
  39.4392         43
  39.4577         45
  39.4763         46
  39.4949         36
  39.5135         45
  39.5320         37
  39.5506         38
  39.5692         39
  39.5878         43
  39.6063         43
  39.6249         40
  39.6435         31
  39.6621         44
  39.6806         37
  39.6992         40
  39.7178         28
  39.7364         40
  39.7549         36
  39.7735         43
  39.7921         40
  39.8107         38
  39.8293         40
  39.8478         40
  39.8664         29
  39.8850         45
  39.9036         37
  39.9221         33
  39.9407         46
  39.9593         47
  39.9779         46
  39.9964         44
  40.0150         38
  40.0336         48
  40.0522         32
  40.0707         37
  40.0893         37
  40.1079         42
  40.1265         40
  40.1450         46
  40.1636         37
  40.1822         34
  40.2008         42
  40.2193         40
  40.2379         40
  40.2565         43
  40.2751         39
  40.2936         39
  40.3122         33
  40.3308         35
  40.3494         38
  40.3679         37
  40.3865         33
  40.4051         37
  40.4237         47
  40.4422         29
  40.4608         46
  40.4794         37
  40.4980         37
  40.5165         39
  40.5351         53
  40.5537         29
  40.5723         39
  40.5908         46
  40.6094         49
  40.6280         28
  40.6466         37
  40.6652         42
  40.6837         38
  40.7023         41
  40.7209         35
  40.7395         39
  40.7580         28
  40.7766         44
  40.7952         33
  40.8138         40
  40.8323         32
  40.8509         43
  40.8695         35
  40.8881         38
  40.9066         34
  40.9252         45
  40.9438         29
  40.9624         43
  40.9809         35
  40.9995         37
  41.0181         41
  41.0367         35
  41.0552         31
  41.0738         34
  41.0924         33
  41.1110         39
  41.1295         48
  41.1481         31
  41.1667         47
  41.1853         42
  41.2038         43
  41.2224         28
  41.2410         40
  41.2596         32
  41.2781         35
  41.2967         40
  41.3153         45
  41.3339         28
  41.3524         33
  41.3710         38
  41.3896         35
  41.4082         38
  41.4268         39
  41.4453         39
  41.4639         23
  41.4825         46
  41.5011         47
  41.5196         44
  41.5382         39
  41.5568         33
  41.5754         29
  41.5939         43
  41.6125         29
  41.6311         38
  41.6497         39
  41.6682         44
  41.6868         34
  41.7054         33
  41.7240         29
  41.7425         53
  41.7611         36
  41.7797         44
  41.7983         30
  41.8168         41
  41.8354         37
  41.8540         40
  41.8726         31
  41.8911         40
  41.9097         39
  41.9283         42
  41.9469         34
  41.9654         39
  41.9840         46
  42.0026         37
  42.0212         41
  42.0397         40
  42.0583         36
  42.0769         41
  42.0955         45
  42.1140         31
  42.1326         36
  42.1512         43
  42.1698         35
  42.1884         33
  42.2069         44
  42.2255         29
  42.2441         29
  42.2627         37
  42.2812         35
  42.2998         44
  42.3184         39
  42.3370         36
  42.3555         29
  42.3741         29
  42.3927         34
  42.4113         33
  42.4298         27
  42.4484         41
  42.4670         42
  42.4856         28
  42.5041         39
  42.5227         32
  42.5413         30
  42.5599         41
  42.5784         40
  42.5970         36
  42.6156         30
  42.6342         29
  42.6527         38
  42.6713         31
  42.6899         46
  42.7085         36
  42.7270         42
  42.7456         45
  42.7642         42
  42.7828         28
  42.8013         40
  42.8199         37
  42.8385         38
  42.8571         41
  42.8756         36
  42.8942         37
  42.9128         28
  42.9314         37
  42.9500         42
  42.9685         41
  42.9871         39
  43.0057         51
  43.0243         42
  43.0428         45
  43.0614         38
  43.0800         26
  43.0986         33
  43.1171         37
  43.1357         29
  43.1543         32
  43.1729         39
  43.1914         27
  43.2100         61
  43.2286         53
  43.2472         40
  43.2657         38
  43.2843         48
  43.3029         46
  43.3215         39
  43.3400         47
  43.3586         47
  43.3772         46
  43.3958         48
  43.4143         37
  43.4329         37
  43.4515         41
  43.4701         55
  43.4886         62
  43.5072         73
  43.5258         74
  43.5444         57
  43.5629         53
  43.5815         44
  43.6001         50
  43.6187         50
  43.6372         51
  43.6558         42
  43.6744         45
  43.6930         27
  43.7116         42
  43.7301         38
  43.7487         43
  43.7673         42
  43.7859         37
  43.8044         32
  43.8230         33
  43.8416         29
  43.8602         45
  43.8787         39
  43.8973         38
  43.9159         46
  43.9345         41
  43.9530         42
  43.9716         36
  43.9902         38
  44.0088         44
  44.0273         31
  44.0459         39
  44.0645         42
  44.0831         44
  44.1016         38
  44.1202         42
  44.1388         30
  44.1574         38
  44.1759         30
  44.1945         39
  44.2131         30
  44.2317         31
  44.2502         37
  44.2688         27
  44.2874         28
  44.3060         38
  44.3245         43
  44.3431         45
  44.3617         39
  44.3803         35
  44.3988         28
  44.4174         33
  44.4360         40
  44.4546         29
  44.4732         39
  44.4917         48
  44.5103         35
  44.5289         40
  44.5475         40
  44.5660         39
  44.5846         46
  44.6032         44
  44.6218         36
  44.6403         44
  44.6589         50
  44.6775         41
  44.6961         43
  44.7146         45
  44.7332         34
  44.7518         30
  44.7704         40
  44.7889         46
  44.8075         49
  44.8261         44
  44.8447         38
  44.8632         36
  44.8818         31
  44.9004         41
  44.9190         39
  44.9375         37
  44.9561         33
  44.9747         42
  44.9933         44
  45.0118         41
  45.0304         44
  45.0490         22
  45.0676         40
  45.0861         34
  45.1047         34
  45.1233         29
  45.1419         45
  45.1604         28
  45.1790         31
  45.1976         39
  45.2162         37
  45.2347         41
  45.2533         27
  45.2719         41
  45.2905         32
  45.3091         49
  45.3276         31
  45.3462         26
  45.3648         33
  45.3834         37
  45.4019         32
  45.4205         23
  45.4391         39
  45.4577         28
  45.4762         34
  45.4948         32
  45.5134         34
  45.5320         31
  45.5505         27
  45.5691         33
  45.5877         30
  45.6063         33
  45.6248         35
  45.6434         30
  45.6620         24
  45.6806         34
  45.6991         31
  45.7177         29
  45.7363         32
  45.7549         49
  45.7734         29
  45.7920         35
  45.8106         45
  45.8292         28
  45.8477         34
  45.8663         33
  45.8849         37
  45.9035         34
  45.9220         33
  45.9406         38
  45.9592         29
  45.9778         30
  45.9963         30
  46.0149         43
  46.0335         32
  46.0521         26
  46.0707         37
  46.0892         36
  46.1078         31
  46.1264         34
  46.1450         31
  46.1635         41
  46.1821         22
  46.2007         42
  46.2193         40
  46.2378         31
  46.2564         34
  46.2750         31
  46.2936         30
  46.3121         35
  46.3307         27
  46.3493         29
  46.3679         40
  46.3864         24
  46.4050         31
  46.4236         25
  46.4422         31
  46.4607         42
  46.4793         40
  46.4979         41
  46.5165         39
  46.5350         36
  46.5536         25
  46.5722         36
  46.5908         32
  46.6093         27
  46.6279         41
  46.6465         36
  46.6651         34
  46.6836         34
  46.7022         34
  46.7208         31
  46.7394         36
  46.7579         37
  46.7765         28
  46.7951         37
  46.8137         21
  46.8323         40
  46.8508         29
  46.8694         33
  46.8880         31
  46.9066         34
  46.9251         24
  46.9437         32
  46.9623         38
  46.9809         30
  46.9994         29
  47.0180         29
  47.0366         32
  47.0552         19
  47.0737         40
  47.0923         32
  47.1109         31
  47.1295         42
  47.1480         42
  47.1666         31
  47.1852         29
  47.2038         26
  47.2223         36
  47.2409         43
  47.2595         34
  47.2781         44
  47.2966         32
  47.3152         32
  47.3338         38
  47.3524         38
  47.3709         37
  47.3895         36
  47.4081         35
  47.4267         18
  47.4452         38
  47.4638         32
  47.4824         30
  47.5010         32
  47.5195         40
  47.5381         30
  47.5567         35
  47.5753         28
  47.5939         33
  47.6124         37
  47.6310         28
  47.6496         37
  47.6682         29
  47.6867         38
  47.7053         35
  47.7239         34
  47.7425         35
  47.7610         33
  47.7796         24
  47.7982         31
  47.8168         33
  47.8353         32
  47.8539         30
  47.8725         24
  47.8911         32
  47.9096         29
  47.9282         24
  47.9468         37
  47.9654         33
  47.9839         33
  48.0025         24
  48.0211         27
  48.0397         32
  48.0582         27
  48.0768         28
  48.0954         34
  48.1140         35
  48.1325         28
  48.1511         33
  48.1697         35
  48.1883         26
  48.2068         33
  48.2254         27
  48.2440         39
  48.2626         33
  48.2811         26
  48.2997         30
  48.3183         24
  48.3369         30
  48.3555         35
  48.3740         29
  48.3926         23
  48.4112         31
  48.4298         40
  48.4483         31
  48.4669         43
  48.4855         24
  48.5041         31
  48.5226         29
  48.5412         30
  48.5598         37
  48.5784         36
  48.5969         41
  48.6155         23
  48.6341         35
  48.6527         36
  48.6712         45
  48.6898         33
  48.7084         41
  48.7270         30
  48.7455         40
  48.7641         42
  48.7827         29
  48.8013         40
  48.8198         38
  48.8384         36
  48.8570         40
  48.8756         28
  48.8941         37
  48.9127         33
  48.9313         50
  48.9499         59
  48.9684         62
  48.9870         57
  49.0056         47
  49.0242         34
  49.0427         35
  49.0613         27
  49.0799         44
  49.0985         49
  49.1171         31
  49.1356         30
  49.1542         44
  49.1728         35
  49.1914         43
  49.2099         30
  49.2285         40
  49.2471         26
  49.2657         29
  49.2842         30
  49.3028         27
  49.3214         32
  49.3400         30
  49.3585         26
  49.3771         32
  49.3957         36
  49.4143         43
  49.4328         35
  49.4514         29
  49.4700         38
  49.4886         38
  49.5071         34
  49.5257         33
  49.5443         35
  49.5629         28
  49.5814         28
  49.6000         22
  49.6186         27
  49.6372         40
  49.6557         31
  49.6743         33
  49.6929         29
  49.7115         32
  49.7300         27
  49.7486         35
  49.7672         31
  49.7858         31
  49.8043         32
  49.8229         31
  49.8415         29
  49.8601         23
  49.8786         26
  49.8972         38
  49.9158         44
  49.9344         18
  49.9530         22
  49.9715         34
  49.9901         30
  50.0087         25
  50.0273         42
  50.0458         29
  50.0644         33
  50.0830         38
  50.1016         39
  50.1201         36
  50.1387         30
  50.1573         38
  50.1759         34
  50.1944         31
  50.2130         31
  50.2316         29
  50.2502         20
  50.2687         27
  50.2873         26
  50.3059         34
  50.3245         35
  50.3430         25
  50.3616         33
  50.3802         28
  50.3988         26
  50.4173         25
  50.4359         24
  50.4545         46
  50.4731         25
  50.4916         29
  50.5102         22
  50.5288         25
  50.5474         31
  50.5659         34
  50.5845         30
  50.6031         33
  50.6217         29
  50.6402         25
  50.6588         25
  50.6774         25
  50.6960         25
  50.7146         27
  50.7331         30
  50.7517         30
  50.7703         40
  50.7889         28
  50.8074         30
  50.8260         29
  50.8446         30
  50.8632         28
  50.8817         38
  50.9003         22
  50.9189         35
  50.9375         30
  50.9560         30
  50.9746         27
  50.9932         25
  51.0118         20
  51.0303         34
  51.0489         38
  51.0675         27
  51.0861         37
  51.1046         30
  51.1232         28
  51.1418         35
  51.1604         30
  51.1789         27
  51.1975         34
  51.2161         26
  51.2347         32
  51.2532         41
  51.2718         40
  51.2904         25
  51.3090         18
  51.3275         39
  51.3461         34
  51.3647         42
  51.3833         35
  51.4018         43
  51.4204         43
  51.4390         35
  51.4576         31
  51.4762         33
  51.4947         35
  51.5133         34
  51.5319         44
  51.5505         31
  51.5690         35
  51.5876         29
  51.6062         41
  51.6248         35
  51.6433         33
  51.6619         29
  51.6805         36
  51.6991         33
  51.7176         25
  51.7362         28
  51.7548         37
  51.7734         32
  51.7919         34
  51.8105         38
  51.8291         36
  51.8477         43
  51.8662         30
  51.8848         40
  51.9034         43
  51.9220         25
  51.9405         26
  51.9591         33
  51.9777         34
  51.9963         29
  52.0148         24
  52.0334         27
  52.0520         30
  52.0706         34
  52.0891         22
  52.1077         31
  52.1263         30
  52.1449         24
  52.1634         30
  52.1820         26
  52.2006         34
  52.2192         24
  52.2378         26
  52.2563         26
  52.2749         25
  52.2935         28
  52.3121         27
  52.3306         31
  52.3492         31
  52.3678         34
  52.3864         26
  52.4049         27
  52.4235         27
  52.4421         22
  52.4607         28
  52.4792         32
  52.4978         24
  52.5164         24
  52.5350         35
  52.5535         25
  52.5721         25
  52.5907         32
  52.6093         23
  52.6278         33
  52.6464         23
  52.6650         27
  52.6836         26
  52.7021         37
  52.7207         36
  52.7393         33
  52.7579         36
  52.7764         40
  52.7950         25
  52.8136         32
  52.8322         33
  52.8507         45
  52.8693         27
  52.8879         33
  52.9065         35
  52.9250         40
  52.9436         25
  52.9622         34
  52.9808         31
  52.9994         35
  53.0179         26
  53.0365         26
  53.0551         35
  53.0737         20
  53.0922         29
  53.1108         28
  53.1294         34
  53.1480         34
  53.1665         25
  53.1851         31
  53.2037         33
  53.2223         32
  53.2408         37
  53.2594         27
  53.2780         39
  53.2966         29
  53.3151         30
  53.3337         21
  53.3523         22
  53.3709         31
  53.3894         32
  53.4080         28
  53.4266         29
  53.4452         23
  53.4637         40
  53.4823         30
  53.5009         26
  53.5195         26
  53.5380         42
  53.5566         34
  53.5752         21
  53.5938         37
  53.6123         21
  53.6309         41
  53.6495         28
  53.6681         35
  53.6866         30
  53.7052         24
  53.7238         21
  53.7424         30
  53.7610         38
  53.7795         31
  53.7981         28
  53.8167         29
  53.8353         30
  53.8538         22
  53.8724         23
  53.8910         33
  53.9096         32
  53.9281         28
  53.9467         31
  53.9653         39
  53.9839         56
  54.0024         35
  54.0210         47
  54.0396         44
  54.0582         20
  54.0767         30
  54.0953         25
  54.1139         32
  54.1325         36
  54.1510         37
  54.1696         33
  54.1882         38
  54.2068         22
  54.2253         30
  54.2439         31
  54.2625         36
  54.2811         21
  54.2996         24
  54.3182         40
  54.3368         22
  54.3554         23
  54.3739         34
  54.3925         26
  54.4111         33
  54.4297         29
  54.4482         26
  54.4668         20
  54.4854         20
  54.5040         35
  54.5225         20
  54.5411         23
  54.5597         21
  54.5783         37
  54.5969         27
  54.6154         36
  54.6340         29
  54.6526         24
  54.6712         29
  54.6897         30
  54.7083         22
  54.7269         34
  54.7455         32
  54.7640         28
  54.7826         32
  54.8012         27
  54.8198         25
  54.8383         29
  54.8569         26
  54.8755         22
  54.8941         38
  54.9126         27
  54.9312         26
  54.9498         16
  54.9684         20
  54.9869         31
  55.0055         35
  55.0241         34
  55.0427         30
  55.0612         33
  55.0798         30
  55.0984         22
  55.1170         36
  55.1355         27
  55.1541         27
  55.1727         20
  55.1913         31
  55.2098         31
  55.2284         27
  55.2470         24
  55.2656         27
  55.2841         35
  55.3027         24
  55.3213         28
  55.3399         27
  55.3585         29
  55.3770         24
  55.3956         32
  55.4142         32
  55.4328         27
  55.4513         32
  55.4699         28
  55.4885         21
  55.5071         39
  55.5256         29
  55.5442         34
  55.5628         22
  55.5814         28
  55.5999         25
  55.6185         28
  55.6371         36
  55.6557         28
  55.6742         23
  55.6928         22
  55.7114         27
  55.7300         18
  55.7485         31
  55.7671         27
  55.7857         25
  55.8043         21
  55.8228         24
  55.8414         23
  55.8600         29
  55.8786         39
  55.8971         31
  55.9157         23
  55.9343         29
  55.9529         35
  55.9714         29
  55.9900         31
  56.0086         27
  56.0272         26
  56.0457         28
  56.0643         23
  56.0829         36
  56.1015         22
  56.1201         24
  56.1386         35
  56.1572         29
  56.1758         34
  56.1944         38
  56.2129         33
  56.2315         29
  56.2501         37
  56.2687         17
  56.2872         34
  56.3058         36
  56.3244         18
  56.3430         24
  56.3615         30
  56.3801         40
  56.3987         33
  56.4173         29
  56.4358         28
  56.4544         27
  56.4730         19
  56.4916         32
  56.5101         22
  56.5287         31
  56.5473         19
  56.5659         28
  56.5844         40
  56.6030         38
  56.6216         24
  56.6402         25
  56.6587         25
  56.6773         25
  56.6959         24
  56.7145         27
  56.7330         38
  56.7516         24
  56.7702         27
  56.7888         33
  56.8073         34
  56.8259         33
  56.8445         31
  56.8631         22
  56.8817         27
  56.9002         26
  56.9188         24
  56.9374         22
  56.9560         26
  56.9745         33
  56.9931         35
  57.0117         36
  57.0303         30
  57.0488         25
  57.0674         22
  57.0860         32
  57.1046         33
  57.1231         29
  57.1417         19
  57.1603         31
  57.1789         30
  57.1974         32
  57.2160         19
  57.2346         30
  57.2532         30
  57.2717         30
  57.2903         36
  57.3089         25
  57.3275         32
  57.3460         29
  57.3646         31
  57.3832         32
  57.4018         33
  57.4203         31
  57.4389         31
  57.4575         25
  57.4761         27
  57.4946         32
  57.5132         27
  57.5318         30
  57.5504         22
  57.5689         24
  57.5875         35
  57.6061         25
  57.6247         31
  57.6433         30
  57.6618         24
  57.6804         25
  57.6990         33
  57.7176         30
  57.7361         26
  57.7547         33
  57.7733         33
  57.7919         26
  57.8104         34
  57.8290         25
  57.8476         38
  57.8662         35
  57.8847         39
  57.9033         25
  57.9219         24
  57.9405         27
  57.9590         22
  57.9776         17
  57.9962         32
  58.0148         25
  58.0333         32
  58.0519         36
  58.0705         30
  58.0891         25
  58.1076         29
  58.1262         32
  58.1448         20
  58.1634         24
  58.1819         31
  58.2005         34
  58.2191         27
  58.2377         23
  58.2562         35
  58.2748         27
  58.2934         33
  58.3120         16
  58.3305         29
  58.3491         29
  58.3677         33
  58.3863         23
  58.4049         24
  58.4234         38
  58.4420         23
  58.4606         29
  58.4792         20
  58.4977         31
  58.5163         23
  58.5349         26
  58.5535         32
  58.5720         39
  58.5906         24
  58.6092         29
  58.6278         24
  58.6463         29
  58.6649         19
  58.6835         36
  58.7021         25
  58.7206         31
  58.7392         32
  58.7578         25
  58.7764         28
  58.7949         22
  58.8135         32
  58.8321         26
  58.8507         31
  58.8692         22
  58.8878         24
  58.9064         23
  58.9250         28
  58.9435         23
  58.9621         30
  58.9807         26
  58.9993         24
  59.0178         26
  59.0364         34
  59.0550         28
  59.0736         31
  59.0921         33
  59.1107         31
  59.1293         32
  59.1479         35
  59.1664         31
  59.1850         25
  59.2036         27
  59.2222         20
  59.2408         27
  59.2593         29
  59.2779         33
  59.2965         33
  59.3151         24
  59.3336         26
  59.3522         23
  59.3708         33
  59.3894         21
  59.4079         31
  59.4265         33
  59.4451         19
  59.4637         27
  59.4822         25
  59.5008         24
  59.5194         36
  59.5380         26
  59.5565         31
  59.5751         24
  59.5937         21
  59.6123         36
  59.6308         25
  59.6494         35
  59.6680         32
  59.6866         21
  59.7051         32
  59.7237         30
  59.7423         32
  59.7609         23
  59.7794         26
  59.7980         24
  59.8166         39
  59.8352         16
  59.8537         26
  59.8723         25
  59.8909         27
  59.9095         27
  59.9280         31
  59.9466         27
  59.9652         41
  59.9838         30
  60.0024         27
