; (content of file Y:\Sam\Apurva-07-20-2022\puck2\ML_20220720_29_SJD_0_LaB6-1min.raw)
_FILEVERSION = 3
_SAMPLE = ML_20220720_29_SJD_0_LaB6-1min
_+SAMPLE = 
_SITE = USA
_USER = Administrator
_GONIOMETER_CODE = 20
; Goniometer : D8 theta/2theta, stage : Unknown
_ATTACHMENTS_CODE = 0
_GONIOMETER_RADIUS = 200.5
_FIXED_DIVSLIT = 0.6
_FIXED_SAMPLESLIT = 0
_SOLLER_SLITS = 2
_FIXED_DETSLIT = 9.55
_MONOCHROMATOR = 0
; Incident beam monochromator : None
_SOLLER_SLITS_2 = N
_THIN_FILM = N
_BETA_FILTER = Y
_FIXED_ANTISLIT = 5.89
_ANALYZER_CODE = 0
; Received beam analyzer : None
_DATEMEASURED = "25-Jul-2022 18:40:31"
_WL_UNIT = A
_WL1 = 1.5406
_WL2 = 1.54439
_WL3 = 1.39222
_WLRATIO = 0.5
_ANODE = Cu
_V4_INF_CREATOR = XRDWizard
_V4_INF_CREATOR_VERSION = V2.9.0.22
_V4_INF_WIZARD_VERSION = V2.9.0.22
_V4_INF_WIZARD_ADDINS = V2.9.0.22
_V4_INF_WIZARD_DOCTYPE = XRD
_V4_INF_OSUSER = McQueenLab
_V4_INF_USER = Administrator
_V4_INF_SITE = USA
_V4_INF_SAMPLEID = ML_20220720_29_SJD_0_LaB6-1min

; Data for range 1
_DRIVE = COUPLED
_STEPTIME = 4.23
_STEPSIZE = 0.0185756
_STEPMODE = C
_START = 5
_THETA = 2.5
_2THETA = 5
_KHI = 0
_PHI = 0
_X = 0
_Y = 0
_Z = 0
_DETECTOR = 5
; Detector type : Unknown
_DETECTORSLIT = unkn
_AUX1 = 0
_AUX2 = 0
_AUX3 = 0
_TIMESTARTED = 15
_TEMP_RATE = -1
_TEMP_DELAY = -1
_KV = 40
_MA = 40
_RANGE_WL = 1.5406
_3DPLANE = 0
_V4_ADDITIONALDETECTOR = 257
_V4_PSD2THETA = 3.4372
_V4_PSDCHANNEL1 = 0
_V4_PSDAPERTURE = 12.68
_V4_PSDTYPE = 5
_V4_PSDFIXED = 0
_V4_COUNTERS_MASK = 4096
_V4_DRIVES_MASK = 0
_V4_ENCODERS_MASK = 0
_2THETACOUNTS = 1
; 2THETA  PSD
   5.0000        104
   5.0186        102
   5.0372        118
   5.0557        109
   5.0743         91
   5.0929         86
   5.1115         81
   5.1300         93
   5.1486         88
   5.1672         76
   5.1858         79
   5.2043         78
   5.2229         88
   5.2415         82
   5.2601        109
   5.2786         89
   5.2972        104
   5.3158         73
   5.3344        101
   5.3529         94
   5.3715         94
   5.3901         76
   5.4087         87
   5.4272         93
   5.4458         82
   5.4644         90
   5.4830         83
   5.5015         71
   5.5201         89
   5.5387         85
   5.5573         88
   5.5758         85
   5.5944         89
   5.6130         78
   5.6316         76
   5.6501         75
   5.6687         61
   5.6873         88
   5.7059         67
   5.7244         80
   5.7430         71
   5.7616         80
   5.7802         78
   5.7988         81
   5.8173         86
   5.8359         76
   5.8545         89
   5.8731         84
   5.8916         67
   5.9102         82
   5.9288         65
   5.9474         77
   5.9659         64
   5.9845         75
   6.0031         77
   6.0217         75
   6.0402         60
   6.0588         82
   6.0774         75
   6.0960         75
   6.1145         67
   6.1331         72
   6.1517         76
   6.1703         78
   6.1888         70
   6.2074         68
   6.2260         75
   6.2446         55
   6.2631         62
   6.2817         74
   6.3003         80
   6.3189         71
   6.3374         72
   6.3560         82
   6.3746         80
   6.3932         74
   6.4117         55
   6.4303         64
   6.4489         65
   6.4675         80
   6.4860         67
   6.5046         67
   6.5232         71
   6.5418         53
   6.5604         65
   6.5789         55
   6.5975         59
   6.6161         58
   6.6347         59
   6.6532         74
   6.6718         57
   6.6904         54
   6.7090         61
   6.7275         60
   6.7461         68
   6.7647         50
   6.7833         53
   6.8018         58
   6.8204         45
   6.8390         74
   6.8576         57
   6.8761         62
   6.8947         60
   6.9133         63
   6.9319         78
   6.9504         63
   6.9690         57
   6.9876         58
   7.0062         67
   7.0247         54
   7.0433         67
   7.0619         54
   7.0805         54
   7.0990         56
   7.1176         74
   7.1362         57
   7.1548         54
   7.1733         54
   7.1919         58
   7.2105         67
   7.2291         55
   7.2476         53
   7.2662         62
   7.2848         67
   7.3034         49
   7.3220         52
   7.3405         66
   7.3591         54
   7.3777         56
   7.3963         55
   7.4148         52
   7.4334         56
   7.4520         61
   7.4706         72
   7.4891         67
   7.5077         52
   7.5263         59
   7.5449         75
   7.5634         67
   7.5820         57
   7.6006         63
   7.6192         68
   7.6377         72
   7.6563         65
   7.6749         64
   7.6935         69
   7.7120         63
   7.7306         62
   7.7492         61
   7.7678         71
   7.7863         69
   7.8049         63
   7.8235         69
   7.8421         71
   7.8606         65
   7.8792         60
   7.8978         63
   7.9164         61
   7.9349         72
   7.9535         81
   7.9721         67
   7.9907         65
   8.0092         53
   8.0278         75
   8.0464         70
   8.0650         73
   8.0835         55
   8.1021         77
   8.1207         73
   8.1393         72
   8.1579         78
   8.1764         70
   8.1950         71
   8.2136         73
   8.2322         65
   8.2507         83
   8.2693         64
   8.2879         70
   8.3065         63
   8.3250         75
   8.3436         58
   8.3622         67
   8.3808         65
   8.3993         86
   8.4179         66
   8.4365         82
   8.4551         65
   8.4736         74
   8.4922         75
   8.5108         70
   8.5294         86
   8.5479         79
   8.5665         64
   8.5851         57
   8.6037         65
   8.6222         77
   8.6408         76
   8.6594         68
   8.6780         61
   8.6965         83
   8.7151         70
   8.7337         71
   8.7523         64
   8.7708         60
   8.7894         83
   8.8080         73
   8.8266         75
   8.8451         65
   8.8637         66
   8.8823         94
   8.9009         78
   8.9195         73
   8.9380         73
   8.9566         76
   8.9752         69
   8.9938         76
   9.0123         88
   9.0309         75
   9.0495         69
   9.0681         90
   9.0866         81
   9.1052         79
   9.1238         79
   9.1424         74
   9.1609         94
   9.1795         70
   9.1981         80
   9.2167         84
   9.2352         81
   9.2538         82
   9.2724         90
   9.2910         61
   9.3095         82
   9.3281         91
   9.3467         76
   9.3653         66
   9.3838         85
   9.4024         83
   9.4210         79
   9.4396         88
   9.4581         71
   9.4767         73
   9.4953         93
   9.5139         78
   9.5324         81
   9.5510         61
   9.5696         86
   9.5882         82
   9.6067         67
   9.6253         79
   9.6439         85
   9.6625         67
   9.6811         76
   9.6996         74
   9.7182         81
   9.7368         69
   9.7554         80
   9.7739         84
   9.7925         82
   9.8111         89
   9.8297        101
   9.8482         70
   9.8668         69
   9.8854         81
   9.9040         87
   9.9225         87
   9.9411         84
   9.9597         83
   9.9783         95
   9.9968         92
  10.0154         77
  10.0340         91
  10.0526         93
  10.0711         86
  10.0897         89
  10.1083         85
  10.1269         82
  10.1454         95
  10.1640         78
  10.1826         94
  10.2012         91
  10.2197         86
  10.2383         90
  10.2569         84
  10.2755        108
  10.2940         82
  10.3126         78
  10.3312         93
  10.3498         92
  10.3683         88
  10.3869         85
  10.4055        100
  10.4241         92
  10.4427         97
  10.4612         88
  10.4798         82
  10.4984         88
  10.5170         84
  10.5355         87
  10.5541        110
  10.5727         75
  10.5913         83
  10.6098         97
  10.6284         93
  10.6470         87
  10.6656         88
  10.6841        107
  10.7027         97
  10.7213         99
  10.7399         86
  10.7584         94
  10.7770         72
  10.7956         92
  10.8142         91
  10.8327         87
  10.8513         88
  10.8699         86
  10.8885         86
  10.9070         69
  10.9256         84
  10.9442         77
  10.9628         79
  10.9813         84
  10.9999         70
  11.0185         84
  11.0371         76
  11.0556         93
  11.0742         86
  11.0928         90
  11.1114         90
  11.1299         86
  11.1485         83
  11.1671         88
  11.1857         78
  11.2043         72
  11.2228         83
  11.2414         81
  11.2600         96
  11.2786         75
  11.2971         92
  11.3157         87
  11.3343         91
  11.3529         89
  11.3714        108
  11.3900         69
  11.4086         90
  11.4272         81
  11.4457         92
  11.4643        105
  11.4829        109
  11.5015         74
  11.5200         88
  11.5386         84
  11.5572         89
  11.5758         91
  11.5943         70
  11.6129         94
  11.6315        119
  11.6501         75
  11.6686         83
  11.6872         74
  11.7058         87
  11.7244         90
  11.7429         84
  11.7615         72
  11.7801         86
  11.7987         88
  11.8172         97
  11.8358         81
  11.8544         78
  11.8730         83
  11.8915        105
  11.9101         99
  11.9287         96
  11.9473         79
  11.9659         92
  11.9844         93
  12.0030         97
  12.0216         72
  12.0402         85
  12.0587         81
  12.0773         82
  12.0959         82
  12.1145         82
  12.1330         83
  12.1516         84
  12.1702         76
  12.1888         83
  12.2073         72
  12.2259        105
  12.2445         76
  12.2631         98
  12.2816         77
  12.3002         78
  12.3188         78
  12.3374         81
  12.3559         78
  12.3745         92
  12.3931         76
  12.4117         80
  12.4302         77
  12.4488         88
  12.4674         96
  12.4860         86
  12.5045         75
  12.5231         77
  12.5417         78
  12.5603         81
  12.5788         87
  12.5974         77
  12.6160         70
  12.6346         89
  12.6531         85
  12.6717         70
  12.6903         85
  12.7089         91
  12.7274         72
  12.7460         79
  12.7646         68
  12.7832         69
  12.8018         88
  12.8203         63
  12.8389         80
  12.8575         82
  12.8761         85
  12.8946         89
  12.9132         62
  12.9318         76
  12.9504         77
  12.9689         64
  12.9875         93
  13.0061         73
  13.0247         71
  13.0432         73
  13.0618         66
  13.0804         79
  13.0990         73
  13.1175         78
  13.1361         86
  13.1547         78
  13.1733         58
  13.1918         65
  13.2104         71
  13.2290         76
  13.2476         77
  13.2661         72
  13.2847         63
  13.3033         80
  13.3219         76
  13.3404         68
  13.3590         87
  13.3776         67
  13.3962         72
  13.4147         74
  13.4333         69
  13.4519         66
  13.4705         82
  13.4890         73
  13.5076         64
  13.5262         74
  13.5448         74
  13.5634         78
  13.5819         63
  13.6005         59
  13.6191         72
  13.6377         72
  13.6562         89
  13.6748         55
  13.6934         64
  13.7120         70
  13.7305         72
  13.7491         77
  13.7677         74
  13.7863         80
  13.8048         65
  13.8234         84
  13.8420         65
  13.8606         71
  13.8791         67
  13.8977         76
  13.9163         68
  13.9349         58
  13.9534         62
  13.9720         72
  13.9906         66
  14.0092         58
  14.0277         65
  14.0463         47
  14.0649         51
  14.0835         56
  14.1020         71
  14.1206         73
  14.1392         78
  14.1578         64
  14.1763         67
  14.1949         74
  14.2135         47
  14.2321         58
  14.2506         66
  14.2692         69
  14.2878         65
  14.3064         75
  14.3250         64
  14.3435         51
  14.3621         70
  14.3807         64
  14.3993         63
  14.4178         56
  14.4364         58
  14.4550         62
  14.4736         59
  14.4921         71
  14.5107         76
  14.5293         73
  14.5479         58
  14.5664         67
  14.5850         64
  14.6036         59
  14.6222         45
  14.6407         57
  14.6593         60
  14.6779         76
  14.6965         65
  14.7150         49
  14.7336         68
  14.7522         51
  14.7708         59
  14.7893         69
  14.8079         53
  14.8265         77
  14.8451         63
  14.8636         67
  14.8822         58
  14.9008         68
  14.9194         66
  14.9379         69
  14.9565         68
  14.9751         68
  14.9937         67
  15.0122         63
  15.0308         57
  15.0494         52
  15.0680         54
  15.0866         54
  15.1051         70
  15.1237         62
  15.1423         61
  15.1609         64
  15.1794         56
  15.1980         58
  15.2166         61
  15.2352         69
  15.2537         59
  15.2723         58
  15.2909         68
  15.3095         49
  15.3280         58
  15.3466         65
  15.3652         60
  15.3838         62
  15.4023         76
  15.4209         62
  15.4395         60
  15.4581         57
  15.4766         60
  15.4952         48
  15.5138         54
  15.5324         70
  15.5509         59
  15.5695         70
  15.5881         66
  15.6067         80
  15.6252         72
  15.6438         56
  15.6624         65
  15.6810         70
  15.6995         70
  15.7181         62
  15.7367         47
  15.7553         65
  15.7738         47
  15.7924         71
  15.8110         55
  15.8296         58
  15.8482         59
  15.8667         62
  15.8853         69
  15.9039         57
  15.9225         46
  15.9410         51
  15.9596         57
  15.9782         60
  15.9968         65
  16.0153         53
  16.0339         78
  16.0525         65
  16.0711         47
  16.0896         55
  16.1082         54
  16.1268         58
  16.1454         48
  16.1639         64
  16.1825         49
  16.2011         58
  16.2197         75
  16.2382         51
  16.2568         61
  16.2754         61
  16.2940         65
  16.3125         50
  16.3311         61
  16.3497         66
  16.3683         58
  16.3868         66
  16.4054         57
  16.4240         63
  16.4426         50
  16.4611         73
  16.4797         48
  16.4983         48
  16.5169         54
  16.5354         56
  16.5540         69
  16.5726         64
  16.5912         52
  16.6097         55
  16.6283         56
  16.6469         49
  16.6655         45
  16.6841         52
  16.7026         53
  16.7212         61
  16.7398         66
  16.7584         61
  16.7769         46
  16.7955         54
  16.8141         58
  16.8327         70
  16.8512         66
  16.8698         67
  16.8884         65
  16.9070         54
  16.9255         60
  16.9441         43
  16.9627         53
  16.9813         54
  16.9998         64
  17.0184         46
  17.0370         51
  17.0556         60
  17.0741         51
  17.0927         48
  17.1113         70
  17.1299         51
  17.1484         62
  17.1670         60
  17.1856         58
  17.2042         87
  17.2227         56
  17.2413         60
  17.2599         74
  17.2785         57
  17.2970         67
  17.3156         58
  17.3342         69
  17.3528         71
  17.3713         74
  17.3899         48
  17.4085         49
  17.4271         49
  17.4457         65
  17.4642         55
  17.4828         55
  17.5014         58
  17.5200         66
  17.5385         67
  17.5571         46
  17.5757         50
  17.5943         53
  17.6128         36
  17.6314         46
  17.6500         56
  17.6686         65
  17.6871         51
  17.7057         70
  17.7243         63
  17.7429         51
  17.7614         74
  17.7800         59
  17.7986         62
  17.8172         62
  17.8357         60
  17.8543         44
  17.8729         56
  17.8915         64
  17.9100         74
  17.9286         56
  17.9472         63
  17.9658         50
  17.9843         70
  18.0029         56
  18.0215         69
  18.0401         72
  18.0586         60
  18.0772         49
  18.0958         64
  18.1144         62
  18.1329         56
  18.1515         52
  18.1701         68
  18.1887         63
  18.2073         73
  18.2258         67
  18.2444         66
  18.2630         49
  18.2816         57
  18.3001         64
  18.3187         49
  18.3373         67
  18.3559         56
  18.3744         78
  18.3930         59
  18.4116         63
  18.4302         60
  18.4487         72
  18.4673         51
  18.4859         65
  18.5045         51
  18.5230         60
  18.5416         57
  18.5602         63
  18.5788         70
  18.5973         59
  18.6159         59
  18.6345         66
  18.6531         55
  18.6716         67
  18.6902         55
  18.7088         44
  18.7274         61
  18.7459         51
  18.7645         65
  18.7831         64
  18.8017         72
  18.8202         67
  18.8388         73
  18.8574         60
  18.8760         56
  18.8945         72
  18.9131         63
  18.9317         67
  18.9503         62
  18.9689         68
  18.9874         59
  19.0060         70
  19.0246         58
  19.0432         64
  19.0617         62
  19.0803         64
  19.0989         66
  19.1175         48
  19.1360         67
  19.1546         67
  19.1732         65
  19.1918         52
  19.2103         54
  19.2289         65
  19.2475         58
  19.2661         64
  19.2846         62
  19.3032         64
  19.3218         70
  19.3404         63
  19.3589         63
  19.3775         60
  19.3961         69
  19.4147         58
  19.4332         72
  19.4518         88
  19.4704         54
  19.4890         62
  19.5075         58
  19.5261         69
  19.5447         62
  19.5633         59
  19.5818         63
  19.6004         59
  19.6190         69
  19.6376         70
  19.6561         66
  19.6747         78
  19.6933         63
  19.7119         69
  19.7305         75
  19.7490         69
  19.7676         65
  19.7862         67
  19.8048         59
  19.8233         79
  19.8419         67
  19.8605         61
  19.8791         58
  19.8976         69
  19.9162         65
  19.9348         60
  19.9534         59
  19.9719         63
  19.9905         76
  20.0091         78
  20.0277         47
  20.0462         76
  20.0648         67
  20.0834         75
  20.1020         54
  20.1205         75
  20.1391         68
  20.1577         75
  20.1763         71
  20.1948         69
  20.2134         69
  20.2320         73
  20.2506         67
  20.2691         70
  20.2877         54
  20.3063         66
  20.3249         81
  20.3434         64
  20.3620         52
  20.3806         83
  20.3992         57
  20.4177         75
  20.4363         70
  20.4549         85
  20.4735         65
  20.4921         57
  20.5106         60
  20.5292         80
  20.5478         81
  20.5664         81
  20.5849         66
  20.6035         59
  20.6221         60
  20.6407         71
  20.6592         67
  20.6778         61
  20.6964         85
  20.7150         71
  20.7335         72
  20.7521         62
  20.7707         58
  20.7893         62
  20.8078         63
  20.8264         69
  20.8450         67
  20.8636         57
  20.8821         70
  20.9007         74
  20.9193         79
  20.9379         61
  20.9564         83
  20.9750         64
  20.9936         68
  21.0122         60
  21.0307         65
  21.0493         82
  21.0679         70
  21.0865         82
  21.1050         82
  21.1236         85
  21.1422         97
  21.1608         79
  21.1793         95
  21.1979        102
  21.2165        115
  21.2351        142
  21.2537         96
  21.2722        112
  21.2908        103
  21.3094        127
  21.3280        137
  21.3465        194
  21.3651        199
  21.3837        150
  21.4023        159
  21.4208        118
  21.4394         99
  21.4580        106
  21.4766         75
  21.4951         71
  21.5137         86
  21.5323         88
  21.5509         65
  21.5694         67
  21.5880         79
  21.6066         71
  21.6252         69
  21.6437         73
  21.6623         63
  21.6809         73
  21.6995         81
  21.7180         67
  21.7366         73
  21.7552         80
  21.7738         70
  21.7923         50
  21.8109         72
  21.8295         69
  21.8481         70
  21.8666         72
  21.8852         59
  21.9038         64
  21.9224         74
  21.9409         67
  21.9595         69
  21.9781         71
  21.9967         72
  22.0152         63
  22.0338         80
  22.0524         64
  22.0710         86
  22.0896         84
  22.1081         60
  22.1267         74
  22.1453         65
  22.1639         81
  22.1824         73
  22.2010         78
  22.2196         69
  22.2382         76
  22.2567         70
  22.2753         69
  22.2939         72
  22.3125         67
  22.3310         70
  22.3496         58
  22.3682         52
  22.3868         71
  22.4053         78
  22.4239         72
  22.4425         82
  22.4611         61
  22.4796         78
  22.4982         89
  22.5168         76
  22.5354         69
  22.5539         74
  22.5725         67
  22.5911         72
  22.6097         86
  22.6282         73
  22.6468         88
  22.6654         61
  22.6840         82
  22.7025         85
  22.7211         61
  22.7397         66
  22.7583         67
  22.7768         87
  22.7954         78
  22.8140         84
  22.8326         79
  22.8512         63
  22.8697         70
  22.8883         89
  22.9069         73
  22.9255         74
  22.9440         67
  22.9626         73
  22.9812         94
  22.9998         72
  23.0183         61
  23.0369         65
  23.0555         80
  23.0741         81
  23.0926         76
  23.1112         80
  23.1298         57
  23.1484         79
  23.1669         78
  23.1855         64
  23.2041         64
  23.2227         75
  23.2412         74
  23.2598         81
  23.2784         65
  23.2970         87
  23.3155         94
  23.3341         76
  23.3527         84
  23.3713         59
  23.3898         71
  23.4084         60
  23.4270         67
  23.4456         65
  23.4641         79
  23.4827         84
  23.5013         78
  23.5199         76
  23.5384         59
  23.5570         71
  23.5756         86
  23.5942         54
  23.6128         79
  23.6313         59
  23.6499         76
  23.6685         82
  23.6871         75
  23.7056         74
  23.7242         86
  23.7428         76
  23.7614         69
  23.7799         67
  23.7985         74
  23.8171         76
  23.8357         70
  23.8542         67
  23.8728         67
  23.8914         67
  23.9100         80
  23.9285         79
  23.9471         79
  23.9657         79
  23.9843         84
  24.0028         74
  24.0214         89
  24.0400         72
  24.0586         77
  24.0771         92
  24.0957         84
  24.1143         73
  24.1329         85
  24.1514         76
  24.1700         95
  24.1886         80
  24.2072         80
  24.2257         83
  24.2443         80
  24.2629         82
  24.2815         75
  24.3000         79
  24.3186         68
  24.3372         77
  24.3558         72
  24.3744         76
  24.3929         82
  24.4115         85
  24.4301         85
  24.4487         73
  24.4672         69
  24.4858         75
  24.5044         73
  24.5230         61
  24.5415         72
  24.5601         63
  24.5787         68
  24.5973         65
  24.6158         77
  24.6344         77
  24.6530         74
  24.6716         74
  24.6901         77
  24.7087         80
  24.7273         62
  24.7459         75
  24.7644         77
  24.7830         63
  24.8016         73
  24.8202         64
  24.8387         77
  24.8573         76
  24.8759         71
  24.8945         58
  24.9130         81
  24.9316         74
  24.9502         71
  24.9688         79
  24.9873         72
  25.0059         65
  25.0245         74
  25.0431         69
  25.0616         89
  25.0802         82
  25.0988         82
  25.1174         68
  25.1360         73
  25.1545         69
  25.1731         78
  25.1917         62
  25.2103         67
  25.2288         68
  25.2474         76
  25.2660         61
  25.2846         58
  25.3031         73
  25.3217         57
  25.3403         79
  25.3589         67
  25.3774         82
  25.3960         62
  25.4146         78
  25.4332         74
  25.4517         86
  25.4703         64
  25.4889         80
  25.5075         79
  25.5260         86
  25.5446         74
  25.5632         78
  25.5818         72
  25.6003         80
  25.6189         76
  25.6375         77
  25.6561         87
  25.6746         85
  25.6932         71
  25.7118         74
  25.7304         70
  25.7489         83
  25.7675         56
  25.7861         71
  25.8047         75
  25.8232         62
  25.8418         78
  25.8604         76
  25.8790         69
  25.8976         56
  25.9161         68
  25.9347         65
  25.9533         72
  25.9719         66
  25.9904         70
  26.0090         79
  26.0276         71
  26.0462         66
  26.0647         59
  26.0833         78
  26.1019         65
  26.1205         69
  26.1390         68
  26.1576         70
  26.1762         70
  26.1948         57
  26.2133         90
  26.2319         73
  26.2505         60
  26.2691         70
  26.2876         71
  26.3062         71
  26.3248         66
  26.3434         71
  26.3619         57
  26.3805         65
  26.3991         79
  26.4177         72
  26.4362         59
  26.4548         76
  26.4734         66
  26.4920         86
  26.5105         76
  26.5291         53
  26.5477         57
  26.5663         78
  26.5848         67
  26.6034         61
  26.6220         62
  26.6406         62
  26.6591         55
  26.6777         57
  26.6963         77
  26.7149         68
  26.7335         63
  26.7520         55
  26.7706         60
  26.7892         72
  26.8078         74
  26.8263         69
  26.8449         65
  26.8635         68
  26.8821         65
  26.9006         81
  26.9192         59
  26.9378         54
  26.9564         66
  26.9749         70
  26.9935         63
  27.0121         72
  27.0307         71
  27.0492         84
  27.0678         75
  27.0864         69
  27.1050         80
  27.1235         70
  27.1421         67
  27.1607         69
  27.1793         92
  27.1978         95
  27.2164        102
  27.2350         92
  27.2536         97
  27.2721         62
  27.2907         78
  27.3093         70
  27.3279         67
  27.3464         65
  27.3650         69
  27.3836         62
  27.4022         74
  27.4207         65
  27.4393         62
  27.4579         57
  27.4765         62
  27.4951         63
  27.5136         65
  27.5322         67
  27.5508         60
  27.5694         66
  27.5879         60
  27.6065         60
  27.6251         69
  27.6437         74
  27.6622         69
  27.6808         70
  27.6994         71
  27.7180         69
  27.7365         75
  27.7551         63
  27.7737         55
  27.7923         66
  27.8108         68
  27.8294         71
  27.8480         56
  27.8666         70
  27.8851         58
  27.9037         60
  27.9223         66
  27.9409         70
  27.9594         63
  27.9780         74
  27.9966         54
  28.0152         65
  28.0337         48
  28.0523         53
  28.0709         70
  28.0895         69
  28.1080         70
  28.1266         77
  28.1452         69
  28.1638         71
  28.1823         67
  28.2009         57
  28.2195         61
  28.2381         60
  28.2567         53
  28.2752         60
  28.2938         64
  28.3124         65
  28.3310         79
  28.3495         70
  28.3681         60
  28.3867         55
  28.4053         51
  28.4238         71
  28.4424         61
  28.4610         57
  28.4796         66
  28.4981         54
  28.5167         60
  28.5353         70
  28.5539         60
  28.5724         68
  28.5910         57
  28.6096         65
  28.6282         69
  28.6467         63
  28.6653         48
  28.6839         60
  28.7025         41
  28.7210         56
  28.7396         50
  28.7582         63
  28.7768         56
  28.7953         73
  28.8139         65
  28.8325         54
  28.8511         52
  28.8696         55
  28.8882         56
  28.9068         56
  28.9254         63
  28.9439         59
  28.9625         59
  28.9811         51
  28.9997         57
  29.0183         51
  29.0368         59
  29.0554         65
  29.0740         65
  29.0926         48
  29.1111         58
  29.1297         50
  29.1483         69
  29.1669         54
  29.1854         48
  29.2040         58
  29.2226         56
  29.2412         63
  29.2597         52
  29.2783         75
  29.2969         76
  29.3155         56
  29.3340         56
  29.3526         53
  29.3712         58
  29.3898         64
  29.4083         56
  29.4269         53
  29.4455         50
  29.4641         55
  29.4826         53
  29.5012         47
  29.5198         44
  29.5384         49
  29.5569         67
  29.5755         66
  29.5941         57
  29.6127         58
  29.6312         62
  29.6498         57
  29.6684         58
  29.6870         66
  29.7055         46
  29.7241         54
  29.7427         60
  29.7613         40
  29.7799         49
  29.7984         67
  29.8170         56
  29.8356         50
  29.8542         60
  29.8727         60
  29.8913         48
  29.9099         59
  29.9285         49
  29.9470         66
  29.9656         51
  29.9842         75
  30.0028         52
  30.0213         62
  30.0399         61
  30.0585         61
  30.0771         48
  30.0956         77
  30.1142         62
  30.1328         49
  30.1514         56
  30.1699         55
  30.1885         61
  30.2071         69
  30.2257         67
  30.2442         51
  30.2628         62
  30.2814         65
  30.3000         58
  30.3185         62
  30.3371         70
  30.3557         82
  30.3743        110
  30.3928        113
  30.4114         99
  30.4300        101
  30.4486         93
  30.4671        110
  30.4857         81
  30.5043         63
  30.5229         66
  30.5415         68
  30.5600         70
  30.5786         69
  30.5972         57
  30.6158         61
  30.6343         52
  30.6529         61
  30.6715         68
  30.6901         41
  30.7086         43
  30.7272         65
  30.7458         40
  30.7644         55
  30.7829         53
  30.8015         49
  30.8201         60
  30.8387         61
  30.8572         62
  30.8758         50
  30.8944         59
  30.9130         43
  30.9315         56
  30.9501         51
  30.9687         48
  30.9873         54
  31.0058         61
  31.0244         50
  31.0430         53
  31.0616         53
  31.0801         57
  31.0987         68
  31.1173         49
  31.1359         48
  31.1544         44
  31.1730         53
  31.1916         40
  31.2102         43
  31.2287         50
  31.2473         62
  31.2659         44
  31.2845         48
  31.3030         41
  31.3216         66
  31.3402         52
  31.3588         51
  31.3774         60
  31.3959         63
  31.4145         60
  31.4331         61
  31.4517         50
  31.4702         65
  31.4888         52
  31.5074         51
  31.5260         53
  31.5445         43
  31.5631         59
  31.5817         37
  31.6003         40
  31.6188         54
  31.6374         47
  31.6560         59
  31.6746         56
  31.6931         58
  31.7117         46
  31.7303         41
  31.7489         49
  31.7674         56
  31.7860         34
  31.8046         45
  31.8232         55
  31.8417         50
  31.8603         66
  31.8789         52
  31.8975         51
  31.9160         60
  31.9346         72
  31.9532         45
  31.9718         36
  31.9903         55
  32.0089         53
  32.0275         48
  32.0461         39
  32.0646         54
  32.0832         55
  32.1018         45
  32.1204         44
  32.1390         74
  32.1575         48
  32.1761         39
  32.1947         49
  32.2133         42
  32.2318         48
  32.2504         55
  32.2690         51
  32.2876         53
  32.3061         40
  32.3247         53
  32.3433         41
  32.3619         53
  32.3804         56
  32.3990         57
  32.4176         50
  32.4362         38
  32.4547         52
  32.4733         72
  32.4919         57
  32.5105         66
  32.5290         60
  32.5476         37
  32.5662         55
  32.5848         45
  32.6033         57
  32.6219         43
  32.6405         45
  32.6591         55
  32.6776         49
  32.6962         42
  32.7148         49
  32.7334         48
  32.7519         55
  32.7705         40
  32.7891         49
  32.8077         57
  32.8262         47
  32.8448         54
  32.8634         41
  32.8820         50
  32.9006         37
  32.9191         36
  32.9377         39
  32.9563         60
  32.9749         44
  32.9934         40
  33.0120         35
  33.0306         34
  33.0492         46
  33.0677         43
  33.0863         60
  33.1049         43
  33.1235         37
  33.1420         35
  33.1606         54
  33.1792         50
  33.1978         48
  33.2163         47
  33.2349         46
  33.2535         52
  33.2721         57
  33.2906         31
  33.3092         45
  33.3278         51
  33.3464         45
  33.3649         50
  33.3835         49
  33.4021         39
  33.4207         46
  33.4392         41
  33.4578         39
  33.4764         45
  33.4950         33
  33.5135         43
  33.5321         53
  33.5507         48
  33.5693         44
  33.5878         54
  33.6064         42
  33.6250         40
  33.6436         38
  33.6622         51
  33.6807         33
  33.6993         49
  33.7179         38
  33.7365         38
  33.7550         49
  33.7736         41
  33.7922         46
  33.8108         40
  33.8293         43
  33.8479         57
  33.8665         47
  33.8851         51
  33.9036         39
  33.9222         43
  33.9408         44
  33.9594         36
  33.9779         39
  33.9965         45
  34.0151         44
  34.0337         34
  34.0522         31
  34.0708         39
  34.0894         44
  34.1080         44
  34.1265         42
  34.1451         38
  34.1637         40
  34.1823         36
  34.2008         40
  34.2194         39
  34.2380         32
  34.2566         47
  34.2751         33
  34.2937         39
  34.3123         27
  34.3309         47
  34.3494         44
  34.3680         31
  34.3866         46
  34.4052         49
  34.4238         45
  34.4423         33
  34.4609         55
  34.4795         37
  34.4981         41
  34.5166         46
  34.5352         46
  34.5538         42
  34.5724         39
  34.5909         46
  34.6095         52
  34.6281         46
  34.6467         49
  34.6652         48
  34.6838         51
  34.7024         53
  34.7210         59
  34.7395         57
  34.7581         71
  34.7767         77
  34.7953         49
  34.8138         51
  34.8324         51
  34.8510         48
  34.8696         45
  34.8881         52
  34.9067         38
  34.9253         25
  34.9439         39
  34.9624         35
  34.9810         36
  34.9996         41
  35.0182         34
  35.0367         42
  35.0553         32
  35.0739         40
  35.0925         29
  35.1110         35
  35.1296         34
  35.1482         35
  35.1668         45
  35.1854         50
  35.2039         39
  35.2225         41
  35.2411         38
  35.2597         30
  35.2782         44
  35.2968         35
  35.3154         38
  35.3340         39
  35.3525         37
  35.3711         34
  35.3897         43
  35.4083         42
  35.4268         45
  35.4454         51
  35.4640         36
  35.4826         35
  35.5011         47
  35.5197         37
  35.5383         43
  35.5569         42
  35.5754         46
  35.5940         35
  35.6126         40
  35.6312         45
  35.6497         37
  35.6683         39
  35.6869         36
  35.7055         33
  35.7240         17
  35.7426         38
  35.7612         37
  35.7798         34
  35.7983         39
  35.8169         28
  35.8355         28
  35.8541         35
  35.8726         37
  35.8912         45
  35.9098         32
  35.9284         32
  35.9469         49
  35.9655         26
  35.9841         31
  36.0027         36
  36.0213         32
  36.0398         34
  36.0584         31
  36.0770         35
  36.0956         38
  36.1141         43
  36.1327         53
  36.1513         51
  36.1699         27
  36.1884         33
  36.2070         40
  36.2256         46
  36.2442         40
  36.2627         36
  36.2813         33
  36.2999         38
  36.3185         31
  36.3370         32
  36.3556         34
  36.3742         37
  36.3928         34
  36.4113         21
  36.4299         37
  36.4485         31
  36.4671         37
  36.4856         39
  36.5042         24
  36.5228         32
  36.5414         40
  36.5599         28
  36.5785         29
  36.5971         35
  36.6157         55
  36.6342         39
  36.6528         36
  36.6714         32
  36.6900         22
  36.7085         29
  36.7271         27
  36.7457         26
  36.7643         37
  36.7829         34
  36.8014         43
  36.8200         28
  36.8386         28
  36.8572         42
  36.8757         34
  36.8943         27
  36.9129         44
  36.9315         36
  36.9500         30
  36.9686         31
  36.9872         43
  37.0058         29
  37.0243         37
  37.0429         25
  37.0615         31
  37.0801         36
  37.0986         41
  37.1172         34
  37.1358         38
  37.1544         40
  37.1729         25
  37.1915         36
  37.2101         36
  37.2287         34
  37.2472         39
  37.2658         43
  37.2844         37
  37.3030         34
  37.3215         42
  37.3401         39
  37.3587         40
  37.3773         38
  37.3958         37
  37.4144         40
  37.4330         44
  37.4516         58
  37.4701         40
  37.4887         43
  37.5073         39
  37.5259         39
  37.5445         45
  37.5630         44
  37.5816         41
  37.6002         28
  37.6188         35
  37.6373         37
  37.6559         30
  37.6745         41
  37.6931         30
  37.7116         41
  37.7302         30
  37.7488         31
  37.7674         34
  37.7859         38
  37.8045         29
  37.8231         21
  37.8417         40
  37.8602         24
  37.8788         24
  37.8974         44
  37.9160         47
  37.9345         36
  37.9531         26
  37.9717         29
  37.9903         36
  38.0088         25
  38.0274         33
  38.0460         34
  38.0646         33
  38.0831         31
  38.1017         34
  38.1203         36
  38.1389         35
  38.1574         30
  38.1760         32
  38.1946         30
  38.2132         24
  38.2317         24
  38.2503         41
  38.2689         31
  38.2875         33
  38.3061         21
  38.3246         25
  38.3432         30
  38.3618         38
  38.3804         34
  38.3989         30
  38.4175         36
  38.4361         34
  38.4547         36
  38.4732         31
  38.4918         38
  38.5104         35
  38.5290         29
  38.5475         21
  38.5661         28
  38.5847         37
  38.6033         29
  38.6218         33
  38.6404         26
  38.6590         31
  38.6776         31
  38.6961         28
  38.7147         29
  38.7333         32
  38.7519         29
  38.7704         27
  38.7890         33
  38.8076         28
  38.8262         26
  38.8447         22
  38.8633         31
  38.8819         45
  38.9005         34
  38.9190         42
  38.9376         28
  38.9562         33
  38.9748         35
  38.9933         38
  39.0119         33
  39.0305         29
  39.0491         36
  39.0677         32
  39.0862         35
  39.1048         31
  39.1234         32
  39.1420         33
  39.1605         27
  39.1791         22
  39.1977         30
  39.2163         29
  39.2348         36
  39.2534         33
  39.2720         17
  39.2906         25
  39.3091         31
  39.3277         34
  39.3463         40
  39.3649         25
  39.3834         33
  39.4020         31
  39.4206         37
  39.4392         24
  39.4577         28
  39.4763         28
  39.4949         30
  39.5135         33
  39.5320         26
  39.5506         28
  39.5692         39
  39.5878         32
  39.6063         28
  39.6249         31
  39.6435         35
  39.6621         35
  39.6806         26
  39.6992         34
  39.7178         33
  39.7364         23
  39.7549         31
  39.7735         27
  39.7921         36
  39.8107         36
  39.8293         28
  39.8478         41
  39.8664         40
  39.8850         34
  39.9036         29
  39.9221         38
  39.9407         38
  39.9593         33
  39.9779         25
  39.9964         22
  40.0150         28
  40.0336         30
  40.0522         26
  40.0707         35
  40.0893         25
  40.1079         30
  40.1265         33
  40.1450         34
  40.1636         28
  40.1822         34
  40.2008         32
  40.2193         33
  40.2379         28
  40.2565         23
  40.2751         31
  40.2936         22
  40.3122         36
  40.3308         28
  40.3494         28
  40.3679         34
  40.3865         28
  40.4051         36
  40.4237         26
  40.4422         26
  40.4608         22
  40.4794         32
  40.4980         25
  40.5165         35
  40.5351         29
  40.5537         20
  40.5723         30
  40.5908         16
  40.6094         38
  40.6280         29
  40.6466         30
  40.6652         38
  40.6837         36
  40.7023         24
  40.7209         29
  40.7395         28
  40.7580         28
  40.7766         20
  40.7952         32
  40.8138         29
  40.8323         28
  40.8509         25
  40.8695         27
  40.8881         26
  40.9066         25
  40.9252         22
  40.9438         22
  40.9624         34
  40.9809         28
  40.9995         31
  41.0181         23
  41.0367         25
  41.0552         26
  41.0738         27
  41.0924         35
  41.1110         31
  41.1295         23
  41.1481         29
  41.1667         26
  41.1853         37
  41.2038         26
  41.2224         26
  41.2410         30
  41.2596         34
  41.2781         38
  41.2967         37
  41.3153         39
  41.3339         32
  41.3524         26
  41.3710         25
  41.3896         40
  41.4082         27
  41.4268         24
  41.4453         22
  41.4639         16
  41.4825         28
  41.5011         34
  41.5196         21
  41.5382         21
  41.5568         24
  41.5754         34
  41.5939         22
  41.6125         21
  41.6311         32
  41.6497         24
  41.6682         30
  41.6868         16
  41.7054         19
  41.7240         36
  41.7425         26
  41.7611         32
  41.7797         22
  41.7983         21
  41.8168         24
  41.8354         23
  41.8540         31
  41.8726         23
  41.8911         26
  41.9097         22
  41.9283         29
  41.9469         33
  41.9654         24
  41.9840         35
  42.0026         39
  42.0212         18
  42.0397         19
  42.0583         37
  42.0769         31
  42.0955         27
  42.1140         24
  42.1326         27
  42.1512         36
  42.1698         23
  42.1884         26
  42.2069         23
  42.2255         30
  42.2441         23
  42.2627         35
  42.2812         32
  42.2998         26
  42.3184         22
  42.3370         33
  42.3555         19
  42.3741         30
  42.3927         26
  42.4113         20
  42.4298         39
  42.4484         32
  42.4670         26
  42.4856         22
  42.5041         29
  42.5227         33
  42.5413         18
  42.5599         32
  42.5784         18
  42.5970         32
  42.6156         24
  42.6342         33
  42.6527         34
  42.6713         18
  42.6899         28
  42.7085         27
  42.7270         24
  42.7456         28
  42.7642         33
  42.7828         20
  42.8013         23
  42.8199         22
  42.8385         28
  42.8571         29
  42.8756         27
  42.8942         31
  42.9128         30
  42.9314         19
  42.9500         34
  42.9685         23
  42.9871         40
  43.0057         35
  43.0243         30
  43.0428         27
  43.0614         35
  43.0800         30
  43.0986         38
  43.1171         33
  43.1357         37
  43.1543         27
  43.1729         30
  43.1914         26
  43.2100         28
  43.2286         28
  43.2472         36
  43.2657         35
  43.2843         27
  43.3029         28
  43.3215         29
  43.3400         31
  43.3586         28
  43.3772         38
  43.3958         29
  43.4143         31
  43.4329         22
  43.4515         40
  43.4701         38
  43.4886         48
  43.5072         63
  43.5258         42
  43.5444         32
  43.5629         27
  43.5815         35
  43.6001         52
  43.6187         25
  43.6372         34
  43.6558         22
  43.6744         21
  43.6930         25
  43.7116         31
  43.7301         22
  43.7487         30
  43.7673         24
  43.7859         22
  43.8044         30
  43.8230         23
  43.8416         24
  43.8602         22
  43.8787         16
  43.8973         24
  43.9159         28
  43.9345         25
  43.9530         38
  43.9716         24
  43.9902         24
  44.0088         29
  44.0273         26
  44.0459         26
  44.0645         29
  44.0831         17
  44.1016         26
  44.1202         29
  44.1388         15
  44.1574         18
  44.1759         29
  44.1945         31
  44.2131         32
  44.2317         30
  44.2502         30
  44.2688         28
  44.2874         34
  44.3060         29
  44.3245         21
  44.3431         38
  44.3617         29
  44.3803         20
  44.3988         33
  44.4174         30
  44.4360         37
  44.4546         27
  44.4732         28
  44.4917         24
  44.5103         29
  44.5289         31
  44.5475         41
  44.5660         39
  44.5846         27
  44.6032         22
  44.6218         25
  44.6403         26
  44.6589         38
  44.6775         30
  44.6961         27
  44.7146         27
  44.7332         20
  44.7518         30
  44.7704         27
  44.7889         22
  44.8075         31
  44.8261         30
  44.8447         24
  44.8632         27
  44.8818         17
  44.9004         29
  44.9190         30
  44.9375         30
  44.9561         30
  44.9747         21
  44.9933         28
  45.0118         25
  45.0304         23
  45.0490         28
  45.0676         23
  45.0861         24
  45.1047         19
  45.1233         21
  45.1419         26
  45.1604         21
  45.1790         21
  45.1976         28
  45.2162         35
  45.2347         28
  45.2533         29
  45.2719         24
  45.2905         30
  45.3091         28
  45.3276         31
  45.3462         28
  45.3648         32
  45.3834         21
  45.4019         35
  45.4205         20
  45.4391         33
  45.4577         25
  45.4762         32
  45.4948         20
  45.5134         24
  45.5320         26
  45.5505         24
  45.5691         21
  45.5877         20
  45.6063         28
  45.6248         25
  45.6434         32
  45.6620         26
  45.6806         23
  45.6991         27
  45.7177         28
  45.7363         28
  45.7549         29
  45.7734         25
  45.7920         22
  45.8106         17
  45.8292         21
  45.8477         23
  45.8663         29
  45.8849         26
  45.9035         22
  45.9220         29
  45.9406         21
  45.9592         35
  45.9778         20
  45.9963         35
  46.0149         31
  46.0335         25
  46.0521         27
  46.0707         25
  46.0892         25
  46.1078         29
  46.1264         23
  46.1450         25
  46.1635         24
  46.1821         21
  46.2007         23
  46.2193         27
  46.2378         11
  46.2564         21
  46.2750         26
  46.2936         15
  46.3121         35
  46.3307         30
  46.3493         21
  46.3679         31
  46.3864         20
  46.4050         24
  46.4236         37
  46.4422         25
  46.4607         21
  46.4793         24
  46.4979         24
  46.5165         33
  46.5350         23
  46.5536         19
  46.5722         25
  46.5908         20
  46.6093         17
  46.6279         28
  46.6465         22
  46.6651         31
  46.6836         19
  46.7022         29
  46.7208         25
  46.7394         29
  46.7579         25
  46.7765         25
  46.7951         22
  46.8137         36
  46.8323         30
  46.8508         28
  46.8694         26
  46.8880         24
  46.9066         26
  46.9251         26
  46.9437         21
  46.9623         21
  46.9809         28
  46.9994         27
  47.0180         18
  47.0366         26
  47.0552         27
  47.0737         28
  47.0923         22
  47.1109         26
  47.1295         21
  47.1480         28
  47.1666         25
  47.1852         25
  47.2038         21
  47.2223         32
  47.2409         27
  47.2595         22
  47.2781         18
  47.2966         24
  47.3152         22
  47.3338         23
  47.3524         29
  47.3709         26
  47.3895         21
  47.4081         20
  47.4267         22
  47.4452         16
  47.4638         20
  47.4824         24
  47.5010         20
  47.5195         28
  47.5381         26
  47.5567         23
  47.5753         17
  47.5939         10
  47.6124         24
  47.6310         21
  47.6496         31
  47.6682         30
  47.6867         27
  47.7053         19
  47.7239         23
  47.7425         23
  47.7610         18
  47.7796         21
  47.7982         24
  47.8168         24
  47.8353         19
  47.8539         23
  47.8725         37
  47.8911         35
  47.9096         19
  47.9282         31
  47.9468         30
  47.9654         16
  47.9839         21
  48.0025         15
  48.0211         13
  48.0397         20
  48.0582         27
  48.0768         30
  48.0954         21
  48.1140         30
  48.1325         22
  48.1511         22
  48.1697         29
  48.1883         20
  48.2068         15
  48.2254         32
  48.2440         23
  48.2626         34
  48.2811         27
  48.2997         28
  48.3183         25
  48.3369         28
  48.3555         23
  48.3740         21
  48.3926         14
  48.4112         21
  48.4298         33
  48.4483         28
  48.4669         29
  48.4855         19
  48.5041         27
  48.5226         24
  48.5412         21
  48.5598         20
  48.5784         24
  48.5969         21
  48.6155         28
  48.6341         23
  48.6527         20
  48.6712         25
  48.6898         28
  48.7084         23
  48.7270         30
  48.7455         28
  48.7641         25
  48.7827         25
  48.8013         23
  48.8198         27
  48.8384         19
  48.8570         15
  48.8756         29
  48.8941         24
  48.9127         29
  48.9313         37
  48.9499         50
  48.9684         35
  48.9870         41
  49.0056         26
  49.0242         33
  49.0427         32
  49.0613         27
  49.0799         41
  49.0985         33
  49.1171         25
  49.1356         22
  49.1542         21
  49.1728         18
  49.1914         14
  49.2099         29
  49.2285         23
  49.2471         30
  49.2657         14
  49.2842         21
  49.3028         15
  49.3214         24
  49.3400         20
  49.3585         25
  49.3771         24
  49.3957         19
  49.4143         25
  49.4328         19
  49.4514         28
  49.4700         22
  49.4886         27
  49.5071         23
  49.5257         23
  49.5443         28
  49.5629         16
  49.5814         22
  49.6000         14
  49.6186         23
  49.6372         25
  49.6557         24
  49.6743         13
  49.6929         21
  49.7115         19
  49.7300         18
  49.7486         19
  49.7672         22
  49.7858         26
  49.8043         18
  49.8229         30
  49.8415         17
  49.8601         19
  49.8786         21
  49.8972         22
  49.9158         19
  49.9344         22
  49.9530         20
  49.9715         22
  49.9901         27
  50.0087         24
  50.0273         15
  50.0458         16
  50.0644         19
  50.0830         25
  50.1016         17
  50.1201         17
  50.1387         22
  50.1573         21
  50.1759         33
  50.1944         22
  50.2130         26
  50.2316         24
  50.2502         27
  50.2687         21
  50.2873         36
  50.3059         22
  50.3245         20
  50.3430         15
  50.3616         12
  50.3802         22
  50.3988         24
  50.4173         33
  50.4359         25
  50.4545         24
  50.4731         24
  50.4916         25
  50.5102         23
  50.5288         22
  50.5474         18
  50.5659         18
  50.5845         31
  50.6031         30
  50.6217         26
  50.6402         10
  50.6588         17
  50.6774         26
  50.6960         23
  50.7146         16
  50.7331         15
  50.7517         18
  50.7703         31
  50.7889         13
  50.8074         19
  50.8260         17
  50.8446         21
  50.8632         21
  50.8817         25
  50.9003         23
  50.9189         25
  50.9375         19
  50.9560         24
  50.9746         16
  50.9932         18
  51.0118         24
  51.0303         17
  51.0489         27
  51.0675         31
  51.0861         21
  51.1046         24
  51.1232         27
  51.1418         23
  51.1604         27
  51.1789         21
  51.1975         23
  51.2161         24
  51.2347         20
  51.2532         21
  51.2718         24
  51.2904         20
  51.3090         25
  51.3275         13
  51.3461         21
  51.3647         18
  51.3833         38
  51.4018         23
  51.4204         25
  51.4390         23
  51.4576         32
  51.4762         19
  51.4947         23
  51.5133         23
  51.5319         27
  51.5505         24
  51.5690         28
  51.5876         18
  51.6062         29
  51.6248         24
  51.6433         16
  51.6619         23
  51.6805         20
  51.6991         19
  51.7176         23
  51.7362         25
  51.7548         18
  51.7734         20
  51.7919         15
  51.8105         22
  51.8291         22
  51.8477         23
  51.8662         22
  51.8848         26
  51.9034         23
  51.9220         25
  51.9405         25
  51.9591         17
  51.9777         20
  51.9963         24
  52.0148         21
  52.0334         22
  52.0520         20
  52.0706         18
  52.0891         24
  52.1077         29
  52.1263         23
  52.1449         15
  52.1634         16
  52.1820         21
  52.2006         14
  52.2192         20
  52.2378         19
  52.2563         24
  52.2749         21
  52.2935         20
  52.3121         17
  52.3306         20
  52.3492         20
  52.3678         25
  52.3864         16
  52.4049         20
  52.4235         18
  52.4421         22
  52.4607         15
  52.4792         25
  52.4978         20
  52.5164         19
  52.5350         19
  52.5535         20
  52.5721         22
  52.5907         21
  52.6093         23
  52.6278         17
  52.6464         19
  52.6650         17
  52.6836         22
  52.7021         21
  52.7207         15
  52.7393         25
  52.7579         23
  52.7764         22
  52.7950         15
  52.8136         23
  52.8322         28
  52.8507         12
  52.8693         19
  52.8879         15
  52.9065         18
  52.9250         25
  52.9436         14
  52.9622         21
  52.9808         25
  52.9994         18
  53.0179         18
  53.0365         24
  53.0551         23
  53.0737         25
  53.0922         21
  53.1108         16
  53.1294         13
  53.1480         29
  53.1665         27
  53.1851         16
  53.2037         17
  53.2223         19
  53.2408         34
  53.2594         33
  53.2780         18
  53.2966         25
  53.3151         14
  53.3337         17
  53.3523         30
  53.3709         27
  53.3894         25
  53.4080         35
  53.4266         22
  53.4452         16
  53.4637         14
  53.4823         16
  53.5009         16
  53.5195         12
  53.5380         30
  53.5566         22
  53.5752         24
  53.5938         18
  53.6123         17
  53.6309         27
  53.6495         16
  53.6681         15
  53.6866         23
  53.7052         20
  53.7238         23
  53.7424         15
  53.7610         30
  53.7795         19
  53.7981         17
  53.8167         24
  53.8353         17
  53.8538         20
  53.8724         14
  53.8910         27
  53.9096         25
  53.9281         26
  53.9467         28
  53.9653         25
  53.9839         25
  54.0024         27
  54.0210         32
  54.0396         22
  54.0582         16
  54.0767         28
  54.0953         22
  54.1139         37
  54.1325         29
  54.1510         22
  54.1696         19
  54.1882         27
  54.2068         20
  54.2253         17
  54.2439         22
  54.2625         19
  54.2811         20
  54.2996         17
  54.3182         23
  54.3368         18
  54.3554         24
  54.3739         23
  54.3925         21
  54.4111         29
  54.4297         22
  54.4482         22
  54.4668         21
  54.4854         24
  54.5040         36
  54.5225         18
  54.5411         15
  54.5597         17
  54.5783         20
  54.5969         20
  54.6154         22
  54.6340         24
  54.6526         22
  54.6712         19
  54.6897         27
  54.7083         12
  54.7269         28
  54.7455         18
  54.7640         19
  54.7826         19
  54.8012         20
  54.8198         22
  54.8383         21
  54.8569         27
  54.8755         24
  54.8941         25
  54.9126         22
  54.9312         22
  54.9498         14
  54.9684         26
  54.9869         26
  55.0055         21
  55.0241         16
  55.0427         19
  55.0612         27
  55.0798         20
  55.0984         24
  55.1170         32
  55.1355         19
  55.1541         21
  55.1727         22
  55.1913         15
  55.2098         20
  55.2284         25
  55.2470         22
  55.2656         14
  55.2841         26
  55.3027         19
  55.3213         24
  55.3399         23
  55.3585         24
  55.3770         16
  55.3956         24
  55.4142         23
  55.4328         28
  55.4513         23
  55.4699         14
  55.4885         22
  55.5071         23
  55.5256         14
  55.5442         22
  55.5628         18
  55.5814         23
  55.5999         25
  55.6185         17
  55.6371         26
  55.6557         21
  55.6742         19
  55.6928         25
  55.7114         19
  55.7300         22
  55.7485         27
  55.7671         15
  55.7857         22
  55.8043         25
  55.8228         20
  55.8414         22
  55.8600         20
  55.8786         15
  55.8971         22
  55.9157         26
  55.9343         25
  55.9529         20
  55.9714         20
  55.9900         24
  56.0086         19
  56.0272         23
  56.0457         25
  56.0643         24
  56.0829         19
  56.1015         24
  56.1201         25
  56.1386         11
  56.1572         27
  56.1758         24
  56.1944         22
  56.2129         26
  56.2315         19
  56.2501         26
  56.2687         27
  56.2872         25
  56.3058         27
  56.3244         26
  56.3430         24
  56.3615         22
  56.3801         32
  56.3987         24
  56.4173         18
  56.4358         24
  56.4544         19
  56.4730         21
  56.4916         23
  56.5101         22
  56.5287         17
  56.5473         17
  56.5659         20
  56.5844         21
  56.6030         18
  56.6216         20
  56.6402         30
  56.6587         19
  56.6773         19
  56.6959         23
  56.7145         22
  56.7330         13
  56.7516         20
  56.7702         12
  56.7888         18
  56.8073         28
  56.8259         17
  56.8445         27
  56.8631         15
  56.8817         19
  56.9002         19
  56.9188         15
  56.9374         23
  56.9560         21
  56.9745         21
  56.9931         18
  57.0117         26
  57.0303         23
  57.0488         18
  57.0674         15
  57.0860         19
  57.1046         20
  57.1231         22
  57.1417         29
  57.1603         13
  57.1789         18
  57.1974         25
  57.2160         19
  57.2346         17
  57.2532         24
  57.2717         22
  57.2903         21
  57.3089         21
  57.3275         18
  57.3460         22
  57.3646         19
  57.3832         22
  57.4018         26
  57.4203         24
  57.4389         21
  57.4575         16
  57.4761         17
  57.4946         16
  57.5132         14
  57.5318         16
  57.5504         18
  57.5689         24
  57.5875         22
  57.6061         18
  57.6247         16
  57.6433         15
  57.6618         25
  57.6804         23
  57.6990         17
  57.7176         21
  57.7361         16
  57.7547         21
  57.7733         29
  57.7919         24
  57.8104         14
  57.8290         26
  57.8476         16
  57.8662         23
  57.8847         16
  57.9033         21
  57.9219         25
  57.9405         17
  57.9590         15
  57.9776         17
  57.9962         21
  58.0148         22
  58.0333         18
  58.0519         22
  58.0705         26
  58.0891         25
  58.1076         21
  58.1262         19
  58.1448         31
  58.1634         21
  58.1819         19
  58.2005         16
  58.2191         17
  58.2377         17
  58.2562         14
  58.2748         14
  58.2934         14
  58.3120         18
  58.3305         10
  58.3491         12
  58.3677         27
  58.3863         23
  58.4049         22
  58.4234         14
  58.4420         25
  58.4606         24
  58.4792         20
  58.4977         16
  58.5163         16
  58.5349         24
  58.5535         23
  58.5720         14
  58.5906         15
  58.6092         15
  58.6278         17
  58.6463         23
  58.6649         24
  58.6835         20
  58.7021         20
  58.7206         21
  58.7392         26
  58.7578         21
  58.7764         16
  58.7949         18
  58.8135         23
  58.8321         15
  58.8507         23
  58.8692         20
  58.8878         21
  58.9064         19
  58.9250         21
  58.9435         20
  58.9621         16
  58.9807         20
  58.9993         20
  59.0178         25
  59.0364         15
  59.0550         20
  59.0736         16
  59.0921         23
  59.1107         24
  59.1293         26
  59.1479         22
  59.1664         35
  59.1850         29
  59.2036         24
  59.2222         22
  59.2408         23
  59.2593         20
  59.2779         24
  59.2965         17
  59.3151         15
  59.3336         24
  59.3522         17
  59.3708         14
  59.3894         18
  59.4079         16
  59.4265         17
  59.4451         18
  59.4637         15
  59.4822         24
  59.5008         17
  59.5194         20
  59.5380         11
  59.5565         19
  59.5751         12
  59.5937         15
  59.6123         23
  59.6308         26
  59.6494         23
  59.6680         17
  59.6866         21
  59.7051         15
  59.7237         21
  59.7423         33
  59.7609         15
  59.7794         23
  59.7980         15
  59.8166         15
  59.8352         14
  59.8537         28
  59.8723         13
  59.8909         16
  59.9095         26
  59.9280         27
  59.9466         20
  59.9652         20
  59.9838         22
  60.0024         19
