; (content of file Y:\Sam\Apurva-07-20-2022\puck4\ML_20220718_44_SJD_4_LaB6-2min.raw)
_FILEVERSION = 3
_SAMPLE = ML_20220718_44_SJD_4_LaB6-2min
_+SAMPLE = 
_SITE = USA
_USER = Administrator
_GONIOMETER_CODE = 20
; Goniometer : D8 theta/2theta, stage : Unknown
_ATTACHMENTS_CODE = 0
_GONIOMETER_RADIUS = 200.5
_FIXED_DIVSLIT = 0.6
_FIXED_SAMPLESLIT = 0
_SOLLER_SLITS = 2
_FIXED_DETSLIT = 9.55
_MONOCHROMATOR = 0
; Incident beam monochromator : None
_SOLLER_SLITS_2 = N
_THIN_FILM = N
_BETA_FILTER = Y
_FIXED_ANTISLIT = 5.89
_ANALYZER_CODE = 0
; Received beam analyzer : None
_DATEMEASURED = "26-Jul-2022 12:13:17"
_WL_UNIT = A
_WL1 = 1.5406
_WL2 = 1.54439
_WL3 = 1.39222
_WLRATIO = 0.5
_ANODE = Cu
_V4_INF_CREATOR = XRDWizard
_V4_INF_CREATOR_VERSION = V2.9.0.22
_V4_INF_WIZARD_VERSION = V2.9.0.22
_V4_INF_WIZARD_ADDINS = V2.9.0.22
_V4_INF_WIZARD_DOCTYPE = XRD
_V4_INF_OSUSER = McQueenLab
_V4_INF_USER = Administrator
_V4_INF_SITE = USA
_V4_INF_SAMPLEID = ML_20220718_44_SJD_4_LaB6-2min

; Data for range 1
_DRIVE = COUPLED
_STEPTIME = 5.64
_STEPSIZE = 0.0185756
_STEPMODE = C
_START = 5
_THETA = 2.5
_2THETA = 5
_KHI = 0
_PHI = 0
_X = 0
_Y = 0
_Z = 0
_DETECTOR = 5
; Detector type : Unknown
_DETECTORSLIT = unkn
_AUX1 = 0
_AUX2 = 0
_AUX3 = 0
_TIMESTARTED = 14
_TEMP_RATE = -1
_TEMP_DELAY = -1
_KV = 40
_MA = 40
_RANGE_WL = 1.5406
_3DPLANE = 0
_V4_ADDITIONALDETECTOR = 257
_V4_PSD2THETA = 3.4135
_V4_PSDCHANNEL1 = 0
_V4_PSDAPERTURE = 12.68
_V4_PSDTYPE = 5
_V4_PSDFIXED = 0
_V4_COUNTERS_MASK = 4096
_V4_DRIVES_MASK = 0
_V4_ENCODERS_MASK = 0
_2THETACOUNTS = 1
; 2THETA  PSD
   5.0000        132
   5.0186        127
   5.0372        145
   5.0557        113
   5.0743        119
   5.0929        154
   5.1115         99
   5.1300        128
   5.1486        129
   5.1672        106
   5.1858        117
   5.2043        127
   5.2229         99
   5.2415         92
   5.2601        129
   5.2786        101
   5.2972        127
   5.3158        109
   5.3344        127
   5.3529        126
   5.3715        123
   5.3901        113
   5.4087        124
   5.4272        122
   5.4458        119
   5.4644         97
   5.4830        138
   5.5015        130
   5.5201        106
   5.5387        107
   5.5573        116
   5.5758        104
   5.5944        102
   5.6130        111
   5.6316        112
   5.6501        115
   5.6687        118
   5.6873        114
   5.7059        109
   5.7244        109
   5.7430        109
   5.7616        102
   5.7802        106
   5.7988        100
   5.8173        106
   5.8359         89
   5.8545        102
   5.8731        108
   5.8916         96
   5.9102         99
   5.9288        114
   5.9474        101
   5.9659         98
   5.9845         88
   6.0031        102
   6.0217         83
   6.0402        111
   6.0588         94
   6.0774         82
   6.0960         83
   6.1145         94
   6.1331         92
   6.1517         80
   6.1703         90
   6.1888         94
   6.2074        109
   6.2260         90
   6.2446         86
   6.2631         91
   6.2817         99
   6.3003         80
   6.3189         87
   6.3374         97
   6.3560        108
   6.3746         76
   6.3932         87
   6.4117         81
   6.4303         71
   6.4489         82
   6.4675         91
   6.4860         85
   6.5046        107
   6.5232         82
   6.5418        101
   6.5604         87
   6.5789         95
   6.5975         87
   6.6161        101
   6.6347         86
   6.6532         91
   6.6718         82
   6.6904         97
   6.7090         79
   6.7275         98
   6.7461         94
   6.7647         68
   6.7833         76
   6.8018         85
   6.8204         84
   6.8390         90
   6.8576         80
   6.8761         90
   6.8947         78
   6.9133         75
   6.9319        100
   6.9504         83
   6.9690         72
   6.9876         77
   7.0062         81
   7.0247         72
   7.0433         75
   7.0619         85
   7.0805         76
   7.0990         86
   7.1176         94
   7.1362         82
   7.1548         86
   7.1733         98
   7.1919         88
   7.2105         76
   7.2291         85
   7.2476         90
   7.2662         74
   7.2848         80
   7.3034         83
   7.3220         77
   7.3405         69
   7.3591         84
   7.3777         78
   7.3963         75
   7.4148         76
   7.4334         76
   7.4520         73
   7.4706         90
   7.4891         61
   7.5077         88
   7.5263         63
   7.5449         85
   7.5634        103
   7.5820         87
   7.6006         78
   7.6192         76
   7.6377         93
   7.6563         92
   7.6749         80
   7.6935         87
   7.7120         87
   7.7306        101
   7.7492         81
   7.7678         71
   7.7863         86
   7.8049         96
   7.8235         72
   7.8421        101
   7.8606         85
   7.8792         93
   7.8978         97
   7.9164         98
   7.9349        100
   7.9535        103
   7.9721         79
   7.9907         88
   8.0092         79
   8.0278         84
   8.0464         86
   8.0650         79
   8.0835        109
   8.1021         95
   8.1207         87
   8.1393         98
   8.1579         94
   8.1764         83
   8.1950        106
   8.2136         96
   8.2322         93
   8.2507        107
   8.2693         94
   8.2879         79
   8.3065        107
   8.3250         74
   8.3436        108
   8.3622        122
   8.3808         84
   8.3993         90
   8.4179        104
   8.4365        100
   8.4551         98
   8.4736        110
   8.4922        108
   8.5108         84
   8.5294        111
   8.5479         99
   8.5665        110
   8.5851        100
   8.6037         97
   8.6222         83
   8.6408         90
   8.6594         99
   8.6780         86
   8.6965         73
   8.7151        111
   8.7337        100
   8.7523        115
   8.7708        107
   8.7894         84
   8.8080         90
   8.8266        129
   8.8451         97
   8.8637        111
   8.8823        109
   8.9009        112
   8.9195         91
   8.9380         92
   8.9566        111
   8.9752         97
   8.9938        103
   9.0123         98
   9.0309         95
   9.0495         99
   9.0681         92
   9.0866         96
   9.1052         93
   9.1238        114
   9.1424         99
   9.1609        108
   9.1795        106
   9.1981         98
   9.2167        113
   9.2352        114
   9.2538        109
   9.2724         96
   9.2910        124
   9.3095        115
   9.3281        106
   9.3467        105
   9.3653        106
   9.3838        108
   9.4024        110
   9.4210        115
   9.4396        115
   9.4581        112
   9.4767         97
   9.4953        116
   9.5139         96
   9.5324        113
   9.5510        121
   9.5696        116
   9.5882        100
   9.6067         88
   9.6253        104
   9.6439        122
   9.6625        115
   9.6811        107
   9.6996        113
   9.7182        107
   9.7368        111
   9.7554        133
   9.7739        111
   9.7925        122
   9.8111        130
   9.8297        112
   9.8482        135
   9.8668        118
   9.8854        101
   9.9040        117
   9.9225        120
   9.9411        102
   9.9597        100
   9.9783        104
   9.9968        129
  10.0154        126
  10.0340        131
  10.0526         97
  10.0711        115
  10.0897        120
  10.1083        100
  10.1269        122
  10.1454        123
  10.1640        127
  10.1826        126
  10.2012        135
  10.2197        105
  10.2383        110
  10.2569        121
  10.2755        108
  10.2940        106
  10.3126        120
  10.3312        134
  10.3498        116
  10.3683        133
  10.3869        119
  10.4055        105
  10.4241        110
  10.4427        132
  10.4612        110
  10.4798        103
  10.4984        145
  10.5170        126
  10.5355        129
  10.5541        135
  10.5727        120
  10.5913        134
  10.6098        115
  10.6284        113
  10.6470        140
  10.6656        124
  10.6841        121
  10.7027        136
  10.7213        116
  10.7399        114
  10.7584        114
  10.7770        108
  10.7956        117
  10.8142        113
  10.8327        122
  10.8513         91
  10.8699        108
  10.8885        113
  10.9070        102
  10.9256        118
  10.9442        106
  10.9628        147
  10.9813        108
  10.9999        124
  11.0185        114
  11.0371        117
  11.0556         97
  11.0742        110
  11.0928        123
  11.1114        125
  11.1299        114
  11.1485        120
  11.1671        100
  11.1857        108
  11.2043        113
  11.2228         99
  11.2414         96
  11.2600        126
  11.2786        111
  11.2971        110
  11.3157        129
  11.3343         95
  11.3529        118
  11.3714        102
  11.3900        105
  11.4086        110
  11.4272        124
  11.4457        113
  11.4643        107
  11.4829        111
  11.5015        148
  11.5200        123
  11.5386        120
  11.5572        115
  11.5758        129
  11.5943        130
  11.6129        104
  11.6315        117
  11.6501        109
  11.6686        117
  11.6872        115
  11.7058        114
  11.7244        129
  11.7429        120
  11.7615        120
  11.7801        106
  11.7987        137
  11.8172        108
  11.8358        106
  11.8544         99
  11.8730        102
  11.8915        104
  11.9101        116
  11.9287        125
  11.9473         97
  11.9659        122
  11.9844        111
  12.0030         89
  12.0216        104
  12.0402         90
  12.0587        108
  12.0773        124
  12.0959        123
  12.1145        117
  12.1330        123
  12.1516        111
  12.1702         98
  12.1888        102
  12.2073        122
  12.2259        113
  12.2445        125
  12.2631        126
  12.2816         93
  12.3002         98
  12.3188         95
  12.3374         99
  12.3559        113
  12.3745        113
  12.3931        133
  12.4117        103
  12.4302        111
  12.4488        101
  12.4674         97
  12.4860        120
  12.5045        114
  12.5231        129
  12.5417        121
  12.5603        115
  12.5788         93
  12.5974         93
  12.6160         98
  12.6346         95
  12.6531        110
  12.6717        101
  12.6903        106
  12.7089        113
  12.7274        104
  12.7460        130
  12.7646        105
  12.7832        104
  12.8018        121
  12.8203        101
  12.8389         91
  12.8575        102
  12.8761         86
  12.8946         97
  12.9132        106
  12.9318         94
  12.9504        103
  12.9689         99
  12.9875        111
  13.0061        136
  13.0247         99
  13.0432         89
  13.0618         89
  13.0804        102
  13.0990        102
  13.1175        116
  13.1361        102
  13.1547         95
  13.1733        111
  13.1918         76
  13.2104        102
  13.2290        102
  13.2476        102
  13.2661         84
  13.2847        115
  13.3033         96
  13.3219        105
  13.3404         99
  13.3590        114
  13.3776        110
  13.3962        104
  13.4147         90
  13.4333        108
  13.4519         75
  13.4705        103
  13.4890        107
  13.5076        100
  13.5262         98
  13.5448        113
  13.5634        100
  13.5819         84
  13.6005        105
  13.6191        100
  13.6377         89
  13.6562         82
  13.6748         85
  13.6934        103
  13.7120         85
  13.7305         94
  13.7491         97
  13.7677        108
  13.7863         84
  13.8048         98
  13.8234         78
  13.8420         90
  13.8606        102
  13.8791        100
  13.8977         82
  13.9163         92
  13.9349         95
  13.9534         99
  13.9720         80
  13.9906         94
  14.0092         93
  14.0277         77
  14.0463        103
  14.0649         98
  14.0835         99
  14.1020         97
  14.1206         76
  14.1392         82
  14.1578         96
  14.1763        103
  14.1949         95
  14.2135        104
  14.2321         87
  14.2506         86
  14.2692         98
  14.2878         90
  14.3064         81
  14.3250        101
  14.3435         96
  14.3621         93
  14.3807         76
  14.3993         79
  14.4178         85
  14.4364        109
  14.4550         74
  14.4736         67
  14.4921         84
  14.5107         80
  14.5293         90
  14.5479         88
  14.5664         89
  14.5850        103
  14.6036         91
  14.6222         87
  14.6407         93
  14.6593         98
  14.6779         87
  14.6965         77
  14.7150         77
  14.7336        114
  14.7522         80
  14.7708         85
  14.7893         89
  14.8079         78
  14.8265         73
  14.8451         91
  14.8636         80
  14.8822         87
  14.9008         79
  14.9194         69
  14.9379         87
  14.9565         77
  14.9751         67
  14.9937         87
  15.0122         73
  15.0308         84
  15.0494         72
  15.0680         84
  15.0866         68
  15.1051         67
  15.1237         85
  15.1423         75
  15.1609         63
  15.1794         82
  15.1980         80
  15.2166         95
  15.2352         84
  15.2537         78
  15.2723         64
  15.2909         90
  15.3095         79
  15.3280         68
  15.3466         74
  15.3652         82
  15.3838        100
  15.4023        108
  15.4209         87
  15.4395         81
  15.4581         79
  15.4766         76
  15.4952         80
  15.5138         78
  15.5324         68
  15.5509         93
  15.5695         87
  15.5881         74
  15.6067         85
  15.6252         83
  15.6438         98
  15.6624        102
  15.6810         85
  15.6995         82
  15.7181         81
  15.7367         79
  15.7553         78
  15.7738         78
  15.7924         70
  15.8110         74
  15.8296         78
  15.8482         79
  15.8667         87
  15.8853         90
  15.9039         80
  15.9225         84
  15.9410         74
  15.9596         72
  15.9782         81
  15.9968         79
  16.0153         89
  16.0339         76
  16.0525         67
  16.0711        104
  16.0896         77
  16.1082         80
  16.1268         74
  16.1454         75
  16.1639         78
  16.1825         64
  16.2011         76
  16.2197         84
  16.2382         73
  16.2568         76
  16.2754         84
  16.2940         81
  16.3125         77
  16.3311         75
  16.3497         64
  16.3683         86
  16.3868         73
  16.4054         79
  16.4240         84
  16.4426         72
  16.4611         93
  16.4797         86
  16.4983         75
  16.5169         64
  16.5354         71
  16.5540         82
  16.5726         66
  16.5912         74
  16.6097         87
  16.6283         84
  16.6469         95
  16.6655         89
  16.6841         80
  16.7026         86
  16.7212         87
  16.7398         72
  16.7584         87
  16.7769         93
  16.7955         95
  16.8141         81
  16.8327         79
  16.8512         74
  16.8698         65
  16.8884         76
  16.9070         74
  16.9255         72
  16.9441         76
  16.9627         86
  16.9813         68
  16.9998         83
  17.0184        100
  17.0370         84
  17.0556         75
  17.0741         81
  17.0927         84
  17.1113         81
  17.1299        102
  17.1484         99
  17.1670         80
  17.1856         88
  17.2042         92
  17.2227         81
  17.2413         88
  17.2599         84
  17.2785         61
  17.2970         76
  17.3156         73
  17.3342         91
  17.3528         79
  17.3713         93
  17.3899         70
  17.4085         72
  17.4271         75
  17.4457         62
  17.4642         67
  17.4828         89
  17.5014         84
  17.5200         75
  17.5385         87
  17.5571         80
  17.5757         84
  17.5943         81
  17.6128         83
  17.6314         79
  17.6500         74
  17.6686         73
  17.6871         80
  17.7057         75
  17.7243         88
  17.7429         76
  17.7614         76
  17.7800         79
  17.7986         73
  17.8172         70
  17.8357         77
  17.8543         84
  17.8729         78
  17.8915         93
  17.9100         67
  17.9286         93
  17.9472         79
  17.9658         72
  17.9843         78
  18.0029         74
  18.0215         84
  18.0401         77
  18.0586         88
  18.0772         87
  18.0958         61
  18.1144         84
  18.1329         72
  18.1515         92
  18.1701         85
  18.1887         99
  18.2073         70
  18.2258         58
  18.2444         82
  18.2630         79
  18.2816         77
  18.3001         71
  18.3187         72
  18.3373         81
  18.3559         84
  18.3744         84
  18.3930         81
  18.4116         88
  18.4302         92
  18.4487         65
  18.4673         75
  18.4859         88
  18.5045         87
  18.5230         89
  18.5416        100
  18.5602         86
  18.5788         82
  18.5973         73
  18.6159         83
  18.6345         75
  18.6531         87
  18.6716         90
  18.6902         92
  18.7088         83
  18.7274         94
  18.7459         91
  18.7645         82
  18.7831         72
  18.8017         92
  18.8202         72
  18.8388         62
  18.8574         80
  18.8760         89
  18.8945         95
  18.9131         78
  18.9317         84
  18.9503        106
  18.9689         75
  18.9874         90
  19.0060         93
  19.0246         98
  19.0432         96
  19.0617         79
  19.0803         82
  19.0989         99
  19.1175         96
  19.1360         74
  19.1546         71
  19.1732         73
  19.1918         87
  19.2103         98
  19.2289         72
  19.2475         91
  19.2661         89
  19.2846        102
  19.3032         79
  19.3218         82
  19.3404         84
  19.3589         84
  19.3775         96
  19.3961         70
  19.4147         71
  19.4332         76
  19.4518         83
  19.4704         82
  19.4890         81
  19.5075         82
  19.5261         86
  19.5447         98
  19.5633         77
  19.5818         78
  19.6004         93
  19.6190         96
  19.6376         77
  19.6561         79
  19.6747         96
  19.6933         90
  19.7119         95
  19.7305         98
  19.7490         98
  19.7676         93
  19.7862         95
  19.8048         83
  19.8233         97
  19.8419         80
  19.8605        116
  19.8791         86
  19.8976         95
  19.9162         96
  19.9348         97
  19.9534         80
  19.9719         87
  19.9905         84
  20.0091         92
  20.0277         89
  20.0462         87
  20.0648         80
  20.0834         89
  20.1020         84
  20.1205         77
  20.1391         89
  20.1577         57
  20.1763        112
  20.1948         81
  20.2134         94
  20.2320        101
  20.2506         89
  20.2691         87
  20.2877         78
  20.3063         94
  20.3249         92
  20.3434        108
  20.3620         77
  20.3806         91
  20.3992         72
  20.4177        101
  20.4363        111
  20.4549         90
  20.4735         97
  20.4921         84
  20.5106         93
  20.5292         87
  20.5478         91
  20.5664         99
  20.5849         85
  20.6035        100
  20.6221         91
  20.6407         88
  20.6592         85
  20.6778        116
  20.6964         79
  20.7150         95
  20.7335        111
  20.7521         86
  20.7707         89
  20.7893         94
  20.8078         89
  20.8264         84
  20.8450         94
  20.8636         83
  20.8821         98
  20.9007         89
  20.9193        105
  20.9379         94
  20.9564         81
  20.9750         86
  20.9936         90
  21.0122         89
  21.0307        101
  21.0493         91
  21.0679         96
  21.0865        115
  21.1050        107
  21.1236        110
  21.1422         84
  21.1608        111
  21.1793        131
  21.1979        145
  21.2165        163
  21.2351        170
  21.2537        164
  21.2722        151
  21.2908        134
  21.3094        143
  21.3280        177
  21.3465        245
  21.3651        261
  21.3837        226
  21.4023        193
  21.4208        167
  21.4394        120
  21.4580        106
  21.4766         86
  21.4951        119
  21.5137         86
  21.5323        103
  21.5509         90
  21.5694         84
  21.5880        108
  21.6066         91
  21.6252        109
  21.6437         93
  21.6623        103
  21.6809         92
  21.6995         89
  21.7180         87
  21.7366         98
  21.7552         83
  21.7738         96
  21.7923        105
  21.8109         94
  21.8295         84
  21.8481         97
  21.8666         87
  21.8852         98
  21.9038         85
  21.9224         99
  21.9409        116
  21.9595        110
  21.9781         88
  21.9967         89
  22.0152        104
  22.0338         97
  22.0524        104
  22.0710        105
  22.0896        103
  22.1081         90
  22.1267         91
  22.1453        102
  22.1639         98
  22.1824         96
  22.2010        108
  22.2196        108
  22.2382        103
  22.2567         98
  22.2753         94
  22.2939         98
  22.3125         90
  22.3310        105
  22.3496         90
  22.3682         96
  22.3868        106
  22.4053         83
  22.4239         90
  22.4425        105
  22.4611         80
  22.4796         87
  22.4982         92
  22.5168         85
  22.5354         98
  22.5539         85
  22.5725        108
  22.5911        114
  22.6097         83
  22.6282        106
  22.6468         85
  22.6654        111
  22.6840        113
  22.7025         93
  22.7211         99
  22.7397         89
  22.7583        114
  22.7768        105
  22.7954        110
  22.8140         77
  22.8326        101
  22.8512        101
  22.8697        113
  22.8883         96
  22.9069         90
  22.9255         94
  22.9440         98
  22.9626         91
  22.9812         91
  22.9998        111
  23.0183         96
  23.0369        102
  23.0555        102
  23.0741        105
  23.0926         93
  23.1112         93
  23.1298        114
  23.1484         92
  23.1669         96
  23.1855         92
  23.2041        108
  23.2227         92
  23.2412         94
  23.2598        102
  23.2784        100
  23.2970         99
  23.3155        107
  23.3341         86
  23.3527         93
  23.3713        115
  23.3898         94
  23.4084         98
  23.4270        102
  23.4456        100
  23.4641         88
  23.4827         98
  23.5013        108
  23.5199        110
  23.5384        103
  23.5570         83
  23.5756         96
  23.5942         81
  23.6128         94
  23.6313         97
  23.6499         98
  23.6685        107
  23.6871        111
  23.7056        103
  23.7242        101
  23.7428        103
  23.7614         97
  23.7799         94
  23.7985        109
  23.8171         85
  23.8357         96
  23.8542         85
  23.8728         99
  23.8914         86
  23.9100         84
  23.9285         96
  23.9471        105
  23.9657         99
  23.9843        118
  24.0028         96
  24.0214        111
  24.0400        110
  24.0586        109
  24.0771        105
  24.0957         99
  24.1143        104
  24.1329        100
  24.1514        103
  24.1700        111
  24.1886         84
  24.2072         95
  24.2257         94
  24.2443        137
  24.2629         92
  24.2815        111
  24.3000        119
  24.3186        113
  24.3372        104
  24.3558        117
  24.3744        115
  24.3929         97
  24.4115         90
  24.4301        107
  24.4487         99
  24.4672         97
  24.4858         89
  24.5044         93
  24.5230         90
  24.5415         96
  24.5601         87
  24.5787        107
  24.5973        104
  24.6158         97
  24.6344         88
  24.6530         97
  24.6716        102
  24.6901        109
  24.7087        112
  24.7273        100
  24.7459        104
  24.7644         93
  24.7830         92
  24.8016        101
  24.8202         98
  24.8387        106
  24.8573        102
  24.8759        101
  24.8945        101
  24.9130         96
  24.9316         94
  24.9502        101
  24.9688        102
  24.9873         92
  25.0059        100
  25.0245         99
  25.0431        121
  25.0616         88
  25.0802        101
  25.0988        102
  25.1174        111
  25.1360         94
  25.1545        109
  25.1731         87
  25.1917        102
  25.2103         90
  25.2288        103
  25.2474         94
  25.2660        103
  25.2846         94
  25.3031         94
  25.3217        100
  25.3403         91
  25.3589         95
  25.3774         91
  25.3960        100
  25.4146        101
  25.4332        105
  25.4517         99
  25.4703        112
  25.4889         93
  25.5075        107
  25.5260        133
  25.5446        119
  25.5632         77
  25.5818        100
  25.6003        101
  25.6189        104
  25.6375         99
  25.6561         94
  25.6746         92
  25.6932        103
  25.7118        100
  25.7304         89
  25.7489         91
  25.7675         97
  25.7861         95
  25.8047        102
  25.8232         98
  25.8418        112
  25.8604        104
  25.8790         90
  25.8976         80
  25.9161        108
  25.9347         84
  25.9533         91
  25.9719         83
  25.9904        105
  26.0090         95
  26.0276         82
  26.0462         95
  26.0647         90
  26.0833         92
  26.1019         91
  26.1205        105
  26.1390         77
  26.1576         91
  26.1762        112
  26.1948        104
  26.2133         79
  26.2319         93
  26.2505         87
  26.2691         73
  26.2876         93
  26.3062         81
  26.3248         96
  26.3434         87
  26.3619         82
  26.3805         96
  26.3991         86
  26.4177         92
  26.4362        101
  26.4548         82
  26.4734        101
  26.4920         88
  26.5105         96
  26.5291         95
  26.5477         97
  26.5663        108
  26.5848        103
  26.6034        102
  26.6220         88
  26.6406         91
  26.6591         95
  26.6777         82
  26.6963        113
  26.7149         87
  26.7335         89
  26.7520         93
  26.7706         92
  26.7892         84
  26.8078         94
  26.8263         99
  26.8449         85
  26.8635         89
  26.8821        103
  26.9006         84
  26.9192        100
  26.9378         93
  26.9564        101
  26.9749         94
  26.9935         94
  27.0121         90
  27.0307         91
  27.0492         96
  27.0678         86
  27.0864        102
  27.1050         80
  27.1235         95
  27.1421         84
  27.1607        107
  27.1793        107
  27.1978        113
  27.2164        112
  27.2350        119
  27.2536        119
  27.2721        105
  27.2907         95
  27.3093         91
  27.3279         90
  27.3464         93
  27.3650         92
  27.3836        113
  27.4022         99
  27.4207         84
  27.4393         87
  27.4579        113
  27.4765         96
  27.4951        100
  27.5136         82
  27.5322        109
  27.5508         85
  27.5694         98
  27.5879         85
  27.6065         69
  27.6251         81
  27.6437         81
  27.6622         95
  27.6808         93
  27.6994         83
  27.7180         88
  27.7365         92
  27.7551         88
  27.7737         86
  27.7923         91
  27.8108         96
  27.8294         83
  27.8480         68
  27.8666         74
  27.8851         95
  27.9037         89
  27.9223         90
  27.9409         78
  27.9594         87
  27.9780         86
  27.9966         86
  28.0152         76
  28.0337         68
  28.0523         68
  28.0709         72
  28.0895         86
  28.1080        112
  28.1266         81
  28.1452         80
  28.1638         84
  28.1823        102
  28.2009         76
  28.2195         77
  28.2381         67
  28.2567         76
  28.2752        104
  28.2938         75
  28.3124         92
  28.3310         89
  28.3495         76
  28.3681         67
  28.3867         83
  28.4053         76
  28.4238         94
  28.4424         88
  28.4610         85
  28.4796        101
  28.4981         84
  28.5167         73
  28.5353         87
  28.5539         75
  28.5724         76
  28.5910         80
  28.6096         88
  28.6282         78
  28.6467         85
  28.6653         71
  28.6839        101
  28.7025         83
  28.7210         85
  28.7396         77
  28.7582         80
  28.7768         83
  28.7953         89
  28.8139         88
  28.8325         76
  28.8511         72
  28.8696         96
  28.8882         81
  28.9068         83
  28.9254         87
  28.9439         72
  28.9625         88
  28.9811         89
  28.9997         69
  29.0183         87
  29.0368         66
  29.0554         63
  29.0740         83
  29.0926         76
  29.1111         93
  29.1297         76
  29.1483         80
  29.1669         82
  29.1854         84
  29.2040         77
  29.2226         74
  29.2412         82
  29.2597         87
  29.2783         78
  29.2969         78
  29.3155         66
  29.3340         72
  29.3526         84
  29.3712         93
  29.3898         78
  29.4083         79
  29.4269         91
  29.4455         56
  29.4641         70
  29.4826         71
  29.5012         81
  29.5198         83
  29.5384         66
  29.5569         87
  29.5755        102
  29.5941         80
  29.6127         63
  29.6312         79
  29.6498         91
  29.6684         68
  29.6870         74
  29.7055         84
  29.7241         82
  29.7427         73
  29.7613         71
  29.7799         74
  29.7984         64
  29.8170         67
  29.8356         63
  29.8542         81
  29.8727         83
  29.8913         77
  29.9099         78
  29.9285         74
  29.9470         75
  29.9656         73
  29.9842         62
  30.0028         86
  30.0213         87
  30.0399         72
  30.0585         80
  30.0771         68
  30.0956         88
  30.1142         75
  30.1328         67
  30.1514         70
  30.1699         80
  30.1885         78
  30.2071         67
  30.2257         84
  30.2442         77
  30.2628         91
  30.2814         84
  30.3000         93
  30.3185         79
  30.3371        103
  30.3557        100
  30.3743        141
  30.3928        181
  30.4114        149
  30.4300        108
  30.4486        110
  30.4671        117
  30.4857        111
  30.5043         88
  30.5229         86
  30.5415         80
  30.5600         76
  30.5786         67
  30.5972         92
  30.6158         64
  30.6343         78
  30.6529         90
  30.6715         83
  30.6901         71
  30.7086         65
  30.7272         63
  30.7458         87
  30.7644         72
  30.7829         68
  30.8015         62
  30.8201         59
  30.8387        101
  30.8572         62
  30.8758         84
  30.8944         62
  30.9130         84
  30.9315         82
  30.9501         71
  30.9687         84
  30.9873         65
  31.0058         87
  31.0244         68
  31.0430         60
  31.0616         84
  31.0801         74
  31.0987         77
  31.1173         71
  31.1359         78
  31.1544         64
  31.1730         64
  31.1916         67
  31.2102         83
  31.2287         69
  31.2473         68
  31.2659         69
  31.2845         58
  31.3030         66
  31.3216         49
  31.3402         81
  31.3588         68
  31.3774         78
  31.3959         60
  31.4145         77
  31.4331         81
  31.4517         78
  31.4702         72
  31.4888         63
  31.5074         78
  31.5260         67
  31.5445         72
  31.5631         61
  31.5817         55
  31.6003         82
  31.6188         73
  31.6374         72
  31.6560         68
  31.6746         81
  31.6931         64
  31.7117         67
  31.7303         57
  31.7489         56
  31.7674         65
  31.7860         64
  31.8046         68
  31.8232         56
  31.8417         62
  31.8603         67
  31.8789         59
  31.8975         69
  31.9160         75
  31.9346         70
  31.9532         72
  31.9718         67
  31.9903         66
  32.0089         45
  32.0275         59
  32.0461         71
  32.0646         60
  32.0832         62
  32.1018         62
  32.1204         55
  32.1390         72
  32.1575         54
  32.1761         71
  32.1947         67
  32.2133         49
  32.2318         71
  32.2504         72
  32.2690         62
  32.2876         67
  32.3061         72
  32.3247         67
  32.3433         72
  32.3619         53
  32.3804         68
  32.3990         57
  32.4176         59
  32.4362         70
  32.4547         82
  32.4733         69
  32.4919         80
  32.5105         63
  32.5290         71
  32.5476         66
  32.5662         70
  32.5848         64
  32.6033         68
  32.6219         63
  32.6405         74
  32.6591         67
  32.6776         58
  32.6962         57
  32.7148         56
  32.7334         74
  32.7519         61
  32.7705         69
  32.7891         58
  32.8077         47
  32.8262         62
  32.8448         61
  32.8634         64
  32.8820         66
  32.9006         61
  32.9191         67
  32.9377         63
  32.9563         55
  32.9749         70
  32.9934         65
  33.0120         50
  33.0306         51
  33.0492         61
  33.0677         68
  33.0863         68
  33.1049         58
  33.1235         63
  33.1420         63
  33.1606         56
  33.1792         61
  33.1978         58
  33.2163         58
  33.2349         64
  33.2535         66
  33.2721         67
  33.2906         70
  33.3092         60
  33.3278         51
  33.3464         44
  33.3649         59
  33.3835         58
  33.4021         41
  33.4207         55
  33.4392         54
  33.4578         56
  33.4764         61
  33.4950         57
  33.5135         68
  33.5321         61
  33.5507         59
  33.5693         67
  33.5878         47
  33.6064         62
  33.6250         54
  33.6436         50
  33.6622         52
  33.6807         67
  33.6993         67
  33.7179         65
  33.7365         58
  33.7550         63
  33.7736         54
  33.7922         50
  33.8108         61
  33.8293         49
  33.8479         62
  33.8665         61
  33.8851         52
  33.9036         45
  33.9222         60
  33.9408         47
  33.9594         61
  33.9779         61
  33.9965         63
  34.0151         66
  34.0337         52
  34.0522         50
  34.0708         50
  34.0894         49
  34.1080         61
  34.1265         48
  34.1451         56
  34.1637         60
  34.1823         45
  34.2008         43
  34.2194         61
  34.2380         58
  34.2566         54
  34.2751         58
  34.2937         67
  34.3123         66
  34.3309         37
  34.3494         47
  34.3680         64
  34.3866         56
  34.4052         53
  34.4238         55
  34.4423         51
  34.4609         51
  34.4795         61
  34.4981         54
  34.5166         45
  34.5352         59
  34.5538         45
  34.5724         64
  34.5909         49
  34.6095         69
  34.6281         71
  34.6467         65
  34.6652         58
  34.6838         59
  34.7024         63
  34.7210         69
  34.7395         89
  34.7581         84
  34.7767         81
  34.7953         69
  34.8138         71
  34.8324         62
  34.8510         74
  34.8696         73
  34.8881         80
  34.9067         56
  34.9253         50
  34.9439         49
  34.9624         59
  34.9810         56
  34.9996         57
  35.0182         47
  35.0367         50
  35.0553         76
  35.0739         59
  35.0925         61
  35.1110         51
  35.1296         51
  35.1482         52
  35.1668         51
  35.1854         51
  35.2039         50
  35.2225         53
  35.2411         49
  35.2597         60
  35.2782         50
  35.2968         44
  35.3154         49
  35.3340         49
  35.3525         50
  35.3711         44
  35.3897         44
  35.4083         40
  35.4268         51
  35.4454         67
  35.4640         62
  35.4826         42
  35.5011         44
  35.5197         44
  35.5383         49
  35.5569         61
  35.5754         48
  35.5940         54
  35.6126         49
  35.6312         40
  35.6497         48
  35.6683         46
  35.6869         40
  35.7055         46
  35.7240         49
  35.7426         55
  35.7612         49
  35.7798         44
  35.7983         42
  35.8169         38
  35.8355         49
  35.8541         60
  35.8726         44
  35.8912         53
  35.9098         48
  35.9284         42
  35.9469         42
  35.9655         49
  35.9841         52
  36.0027         44
  36.0213         57
  36.0398         42
  36.0584         50
  36.0770         52
  36.0956         43
  36.1141         49
  36.1327         42
  36.1513         44
  36.1699         58
  36.1884         41
  36.2070         51
  36.2256         52
  36.2442         53
  36.2627         47
  36.2813         54
  36.2999         49
  36.3185         53
  36.3370         56
  36.3556         50
  36.3742         37
  36.3928         40
  36.4113         52
  36.4299         46
  36.4485         42
  36.4671         43
  36.4856         50
  36.5042         52
  36.5228         37
  36.5414         35
  36.5599         57
  36.5785         54
  36.5971         40
  36.6157         44
  36.6342         45
  36.6528         49
  36.6714         54
  36.6900         27
  36.7085         44
  36.7271         45
  36.7457         47
  36.7643         51
  36.7829         41
  36.8014         42
  36.8200         41
  36.8386         44
  36.8572         45
  36.8757         47
  36.8943         41
  36.9129         59
  36.9315         55
  36.9500         54
  36.9686         40
  36.9872         44
  37.0058         32
  37.0243         41
  37.0429         54
  37.0615         45
  37.0801         45
  37.0986         37
  37.1172         41
  37.1358         56
  37.1544         41
  37.1729         46
  37.1915         41
  37.2101         46
  37.2287         48
  37.2472         46
  37.2658         50
  37.2844         56
  37.3030         56
  37.3215         49
  37.3401         39
  37.3587         54
  37.3773         45
  37.3958         40
  37.4144         56
  37.4330         78
  37.4516         69
  37.4701         65
  37.4887         54
  37.5073         44
  37.5259         54
  37.5445         61
  37.5630         63
  37.5816         52
  37.6002         41
  37.6188         57
  37.6373         51
  37.6559         44
  37.6745         54
  37.6931         51
  37.7116         45
  37.7302         50
  37.7488         53
  37.7674         44
  37.7859         47
  37.8045         33
  37.8231         43
  37.8417         38
  37.8602         43
  37.8788         49
  37.8974         41
  37.9160         35
  37.9345         28
  37.9531         38
  37.9717         53
  37.9903         46
  38.0088         34
  38.0274         49
  38.0460         46
  38.0646         54
  38.0831         35
  38.1017         34
  38.1203         39
  38.1389         32
  38.1574         43
  38.1760         57
  38.1946         50
  38.2132         43
  38.2317         35
  38.2503         39
  38.2689         55
  38.2875         39
  38.3061         35
  38.3246         42
  38.3432         36
  38.3618         40
  38.3804         39
  38.3989         46
  38.4175         47
  38.4361         42
  38.4547         49
  38.4732         57
  38.4918         32
  38.5104         37
  38.5290         34
  38.5475         28
  38.5661         45
  38.5847         39
  38.6033         44
  38.6218         42
  38.6404         40
  38.6590         39
  38.6776         48
  38.6961         48
  38.7147         49
  38.7333         47
  38.7519         36
  38.7704         44
  38.7890         40
  38.8076         57
  38.8262         49
  38.8447         47
  38.8633         46
  38.8819         38
  38.9005         30
  38.9190         54
  38.9376         44
  38.9562         45
  38.9748         28
  38.9933         57
  39.0119         46
  39.0305         38
  39.0491         40
  39.0677         41
  39.0862         38
  39.1048         40
  39.1234         32
  39.1420         44
  39.1605         38
  39.1791         37
  39.1977         40
  39.2163         35
  39.2348         44
  39.2534         41
  39.2720         27
  39.2906         45
  39.3091         39
  39.3277         48
  39.3463         50
  39.3649         35
  39.3834         28
  39.4020         35
  39.4206         43
  39.4392         39
  39.4577         32
  39.4763         38
  39.4949         34
  39.5135         33
  39.5320         51
  39.5506         45
  39.5692         39
  39.5878         48
  39.6063         31
  39.6249         45
  39.6435         39
  39.6621         35
  39.6806         44
  39.6992         40
  39.7178         37
  39.7364         38
  39.7549         51
  39.7735         36
  39.7921         32
  39.8107         40
  39.8293         36
  39.8478         38
  39.8664         44
  39.8850         38
  39.9036         35
  39.9221         35
  39.9407         32
  39.9593         35
  39.9779         36
  39.9964         33
  40.0150         38
  40.0336         39
  40.0522         27
  40.0707         46
  40.0893         38
  40.1079         38
  40.1265         37
  40.1450         36
  40.1636         37
  40.1822         44
  40.2008         39
  40.2193         37
  40.2379         45
  40.2565         38
  40.2751         36
  40.2936         33
  40.3122         53
  40.3308         33
  40.3494         38
  40.3679         38
  40.3865         27
  40.4051         39
  40.4237         44
  40.4422         40
  40.4608         43
  40.4794         37
  40.4980         32
  40.5165         31
  40.5351         37
  40.5537         35
  40.5723         33
  40.5908         35
  40.6094         33
  40.6280         36
  40.6466         34
  40.6652         38
  40.6837         25
  40.7023         39
  40.7209         35
  40.7395         31
  40.7580         28
  40.7766         35
  40.7952         56
  40.8138         28
  40.8323         41
  40.8509         30
  40.8695         34
  40.8881         29
  40.9066         37
  40.9252         52
  40.9438         57
  40.9624         35
  40.9809         42
  40.9995         35
  41.0181         36
  41.0367         48
  41.0552         45
  41.0738         39
  41.0924         44
  41.1110         33
  41.1295         40
  41.1481         35
  41.1667         54
  41.1853         30
  41.2038         50
  41.2224         28
  41.2410         39
  41.2596         42
  41.2781         38
  41.2967         47
  41.3153         44
  41.3339         38
  41.3524         43
  41.3710         26
  41.3896         30
  41.4082         42
  41.4268         39
  41.4453         44
  41.4639         59
  41.4825         42
  41.5011         33
  41.5196         37
  41.5382         46
  41.5568         34
  41.5754         40
  41.5939         35
  41.6125         29
  41.6311         40
  41.6497         32
  41.6682         45
  41.6868         32
  41.7054         49
  41.7240         34
  41.7425         42
  41.7611         28
  41.7797         35
  41.7983         44
  41.8168         34
  41.8354         45
  41.8540         41
  41.8726         28
  41.8911         35
  41.9097         34
  41.9283         32
  41.9469         30
  41.9654         45
  41.9840         38
  42.0026         39
  42.0212         26
  42.0397         35
  42.0583         33
  42.0769         32
  42.0955         33
  42.1140         40
  42.1326         30
  42.1512         36
  42.1698         40
  42.1884         30
  42.2069         43
  42.2255         44
  42.2441         41
  42.2627         27
  42.2812         38
  42.2998         40
  42.3184         41
  42.3370         46
  42.3555         43
  42.3741         29
  42.3927         40
  42.4113         31
  42.4298         38
  42.4484         30
  42.4670         36
  42.4856         38
  42.5041         44
  42.5227         37
  42.5413         43
  42.5599         40
  42.5784         38
  42.5970         30
  42.6156         32
  42.6342         37
  42.6527         33
  42.6713         36
  42.6899         34
  42.7085         34
  42.7270         40
  42.7456         37
  42.7642         41
  42.7828         39
  42.8013         50
  42.8199         35
  42.8385         36
  42.8571         52
  42.8756         42
  42.8942         38
  42.9128         34
  42.9314         32
  42.9500         45
  42.9685         37
  42.9871         32
  43.0057         40
  43.0243         48
  43.0428         36
  43.0614         39
  43.0800         42
  43.0986         40
  43.1171         41
  43.1357         25
  43.1543         37
  43.1729         38
  43.1914         41
  43.2100         46
  43.2286         52
  43.2472         43
  43.2657         40
  43.2843         40
  43.3029         40
  43.3215         39
  43.3400         45
  43.3586         45
  43.3772         37
  43.3958         35
  43.4143         38
  43.4329         45
  43.4515         37
  43.4701         53
  43.4886         55
  43.5072         76
  43.5258         69
  43.5444         43
  43.5629         43
  43.5815         48
  43.6001         52
  43.6187         56
  43.6372         47
  43.6558         41
  43.6744         48
  43.6930         40
  43.7116         47
  43.7301         38
  43.7487         38
  43.7673         42
  43.7859         41
  43.8044         39
  43.8230         29
  43.8416         32
  43.8602         44
  43.8787         37
  43.8973         38
  43.9159         28
  43.9345         38
  43.9530         33
  43.9716         29
  43.9902         33
  44.0088         44
  44.0273         25
  44.0459         36
  44.0645         30
  44.0831         38
  44.1016         26
  44.1202         27
  44.1388         30
  44.1574         27
  44.1759         39
  44.1945         37
  44.2131         46
  44.2317         37
  44.2502         29
  44.2688         25
  44.2874         34
  44.3060         35
  44.3245         42
  44.3431         38
  44.3617         33
  44.3803         33
  44.3988         33
  44.4174         29
  44.4360         28
  44.4546         31
  44.4732         34
  44.4917         40
  44.5103         48
  44.5289         32
  44.5475         37
  44.5660         41
  44.5846         38
  44.6032         31
  44.6218         41
  44.6403         35
  44.6589         31
  44.6775         36
  44.6961         41
  44.7146         41
  44.7332         47
  44.7518         37
  44.7704         43
  44.7889         35
  44.8075         36
  44.8261         32
  44.8447         38
  44.8632         43
  44.8818         33
  44.9004         25
  44.9190         42
  44.9375         29
  44.9561         40
  44.9747         34
  44.9933         30
  45.0118         43
  45.0304         35
  45.0490         45
  45.0676         29
  45.0861         36
  45.1047         40
  45.1233         22
  45.1419         35
  45.1604         34
  45.1790         33
  45.1976         27
  45.2162         30
  45.2347         35
  45.2533         37
  45.2719         35
  45.2905         29
  45.3091         41
  45.3276         29
  45.3462         29
  45.3648         35
  45.3834         35
  45.4019         25
  45.4205         42
  45.4391         33
  45.4577         29
  45.4762         40
  45.4948         25
  45.5134         27
  45.5320         33
  45.5505         32
  45.5691         23
  45.5877         47
  45.6063         34
  45.6248         26
  45.6434         23
  45.6620         34
  45.6806         33
  45.6991         25
  45.7177         23
  45.7363         29
  45.7549         39
  45.7734         38
  45.7920         28
  45.8106         40
  45.8292         28
  45.8477         25
  45.8663         39
  45.8849         25
  45.9035         32
  45.9220         28
  45.9406         27
  45.9592         29
  45.9778         30
  45.9963         24
  46.0149         27
  46.0335         26
  46.0521         27
  46.0707         27
  46.0892         29
  46.1078         41
  46.1264         28
  46.1450         32
  46.1635         31
  46.1821         41
  46.2007         37
  46.2193         25
  46.2378         28
  46.2564         35
  46.2750         34
  46.2936         34
  46.3121         35
  46.3307         40
  46.3493         34
  46.3679         39
  46.3864         39
  46.4050         33
  46.4236         21
  46.4422         31
  46.4607         41
  46.4793         28
  46.4979         36
  46.5165         29
  46.5350         32
  46.5536         26
  46.5722         39
  46.5908         28
  46.6093         30
  46.6279         28
  46.6465         40
  46.6651         29
  46.6836         29
  46.7022         32
  46.7208         29
  46.7394         49
  46.7579         27
  46.7765         34
  46.7951         32
  46.8137         34
  46.8323         29
  46.8508         34
  46.8694         27
  46.8880         28
  46.9066         42
  46.9251         46
  46.9437         27
  46.9623         41
  46.9809         29
  46.9994         33
  47.0180         22
  47.0366         25
  47.0552         31
  47.0737         32
  47.0923         41
  47.1109         28
  47.1295         38
  47.1480         24
  47.1666         38
  47.1852         38
  47.2038         25
  47.2223         33
  47.2409         35
  47.2595         38
  47.2781         33
  47.2966         37
  47.3152         31
  47.3338         16
  47.3524         32
  47.3709         27
  47.3895         33
  47.4081         32
  47.4267         31
  47.4452         28
  47.4638         25
  47.4824         26
  47.5010         32
  47.5195         33
  47.5381         29
  47.5567         34
  47.5753         41
  47.5939         37
  47.6124         34
  47.6310         30
  47.6496         30
  47.6682         30
  47.6867         34
  47.7053         39
  47.7239         38
  47.7425         33
  47.7610         25
  47.7796         23
  47.7982         35
  47.8168         33
  47.8353         25
  47.8539         26
  47.8725         33
  47.8911         27
  47.9096         32
  47.9282         32
  47.9468         22
  47.9654         33
  47.9839         25
  48.0025         23
  48.0211         37
  48.0397         27
  48.0582         32
  48.0768         30
  48.0954         43
  48.1140         36
  48.1325         32
  48.1511         24
  48.1697         38
  48.1883         31
  48.2068         31
  48.2254         26
  48.2440         24
  48.2626         28
  48.2811         31
  48.2997         35
  48.3183         29
  48.3369         41
  48.3555         31
  48.3740         24
  48.3926         29
  48.4112         39
  48.4298         34
  48.4483         38
  48.4669         29
  48.4855         24
  48.5041         42
  48.5226         29
  48.5412         25
  48.5598         26
  48.5784         36
  48.5969         39
  48.6155         30
  48.6341         36
  48.6527         30
  48.6712         30
  48.6898         33
  48.7084         23
  48.7270         36
  48.7455         33
  48.7641         28
  48.7827         44
  48.8013         35
  48.8198         45
  48.8384         38
  48.8570         33
  48.8756         28
  48.8941         26
  48.9127         52
  48.9313         51
  48.9499         52
  48.9684         57
  48.9870         43
  49.0056         38
  49.0242         36
  49.0427         28
  49.0613         42
  49.0799         63
  49.0985         44
  49.1171         36
  49.1356         39
  49.1542         38
  49.1728         25
  49.1914         37
  49.2099         23
  49.2285         37
  49.2471         27
  49.2657         24
  49.2842         27
  49.3028         22
  49.3214         27
  49.3400         31
  49.3585         42
  49.3771         30
  49.3957         25
  49.4143         25
  49.4328         39
  49.4514         23
  49.4700         34
  49.4886         29
  49.5071         31
  49.5257         33
  49.5443         29
  49.5629         34
  49.5814         37
  49.6000         27
  49.6186         30
  49.6372         20
  49.6557         34
  49.6743         21
  49.6929         39
  49.7115         32
  49.7300         32
  49.7486         25
  49.7672         38
  49.7858         30
  49.8043         46
  49.8229         22
  49.8415         32
  49.8601         31
  49.8786         40
  49.8972         30
  49.9158         37
  49.9344         33
  49.9530         33
  49.9715         38
  49.9901         28
  50.0087         20
  50.0273         46
  50.0458         33
  50.0644         32
  50.0830         32
  50.1016         38
  50.1201         28
  50.1387         31
  50.1573         24
  50.1759         25
  50.1944         34
  50.2130         31
  50.2316         33
  50.2502         37
  50.2687         26
  50.2873         30
  50.3059         32
  50.3245         39
  50.3430         21
  50.3616         36
  50.3802         37
  50.3988         31
  50.4173         36
  50.4359         27
  50.4545         22
  50.4731         32
  50.4916         34
  50.5102         31
  50.5288         24
  50.5474         23
  50.5659         18
  50.5845         28
  50.6031         29
  50.6217         39
  50.6402         23
  50.6588         27
  50.6774         19
  50.6960         26
  50.7146         33
  50.7331         37
  50.7517         31
  50.7703         25
  50.7889         33
  50.8074         27
  50.8260         28
  50.8446         34
  50.8632         24
  50.8817         38
  50.9003         25
  50.9189         24
  50.9375         25
  50.9560         31
  50.9746         35
  50.9932         35
  51.0118         29
  51.0303         29
  51.0489         32
  51.0675         39
  51.0861         27
  51.1046         23
  51.1232         24
  51.1418         32
  51.1604         29
  51.1789         35
  51.1975         37
  51.2161         35
  51.2347         23
  51.2532         27
  51.2718         24
  51.2904         32
  51.3090         29
  51.3275         38
  51.3461         26
  51.3647         24
  51.3833         32
  51.4018         31
  51.4204         34
  51.4390         42
  51.4576         32
  51.4762         25
  51.4947         24
  51.5133         30
  51.5319         32
  51.5505         39
  51.5690         27
  51.5876         25
  51.6062         21
  51.6248         41
  51.6433         22
  51.6619         37
  51.6805         21
  51.6991         42
  51.7176         35
  51.7362         37
  51.7548         22
  51.7734         31
  51.7919         36
  51.8105         30
  51.8291         28
  51.8477         34
  51.8662         28
  51.8848         26
  51.9034         22
  51.9220         38
  51.9405         34
  51.9591         24
  51.9777         30
  51.9963         33
  52.0148         30
  52.0334         27
  52.0520         37
  52.0706         34
  52.0891         32
  52.1077         33
  52.1263         37
  52.1449         31
  52.1634         26
  52.1820         36
  52.2006         39
  52.2192         35
  52.2378         38
  52.2563         33
  52.2749         29
  52.2935         26
  52.3121         30
  52.3306         28
  52.3492         27
  52.3678         28
  52.3864         26
  52.4049         25
  52.4235         25
  52.4421         25
  52.4607         33
  52.4792         33
  52.4978         32
  52.5164         38
  52.5350         34
  52.5535         28
  52.5721         31
  52.5907         35
  52.6093         27
  52.6278         25
  52.6464         30
  52.6650         27
  52.6836         27
  52.7021         30
  52.7207         23
  52.7393         19
  52.7579         26
  52.7764         44
  52.7950         25
  52.8136         27
  52.8322         24
  52.8507         29
  52.8693         32
  52.8879         17
  52.9065         31
  52.9250         30
  52.9436         31
  52.9622         25
  52.9808         40
  52.9994         31
  53.0179         36
  53.0365         32
  53.0551         30
  53.0737         36
  53.0922         32
  53.1108         32
  53.1294         25
  53.1480         29
  53.1665         30
  53.1851         34
  53.2037         27
  53.2223         31
  53.2408         24
  53.2594         24
  53.2780         20
  53.2966         28
  53.3151         25
  53.3337         33
  53.3523         32
  53.3709         30
  53.3894         21
  53.4080         25
  53.4266         32
  53.4452         25
  53.4637         29
  53.4823         29
  53.5009         28
  53.5195         39
  53.5380         29
  53.5566         25
  53.5752         26
  53.5938         19
  53.6123         33
  53.6309         33
  53.6495         25
  53.6681         31
  53.6866         34
  53.7052         31
  53.7238         46
  53.7424         33
  53.7610         26
  53.7795         28
  53.7981         35
  53.8167         29
  53.8353         35
  53.8538         34
  53.8724         25
  53.8910         27
  53.9096         30
  53.9281         27
  53.9467         23
  53.9653         46
  53.9839         40
  54.0024         37
  54.0210         34
  54.0396         36
  54.0582         27
  54.0767         29
  54.0953         35
  54.1139         33
  54.1325         34
  54.1510         34
  54.1696         37
  54.1882         35
  54.2068         33
  54.2253         46
  54.2439         27
  54.2625         27
  54.2811         32
  54.2996         27
  54.3182         26
  54.3368         26
  54.3554         36
  54.3739         29
  54.3925         34
  54.4111         23
  54.4297         28
  54.4482         27
  54.4668         20
  54.4854         29
  54.5040         26
  54.5225         24
  54.5411         21
  54.5597         24
  54.5783         26
  54.5969         30
  54.6154         25
  54.6340         27
  54.6526         28
  54.6712         23
  54.6897         21
  54.7083         29
  54.7269         34
  54.7455         22
  54.7640         23
  54.7826         33
  54.8012         24
  54.8198         31
  54.8383         35
  54.8569         17
  54.8755         31
  54.8941         32
  54.9126         28
  54.9312         31
  54.9498         32
  54.9684         21
  54.9869         17
  55.0055         33
  55.0241         34
  55.0427         39
  55.0612         25
  55.0798         22
  55.0984         19
  55.1170         24
  55.1355         29
  55.1541         21
  55.1727         25
  55.1913         18
  55.2098         18
  55.2284         32
  55.2470         47
  55.2656         28
  55.2841         33
  55.3027         27
  55.3213         35
  55.3399         31
  55.3585         29
  55.3770         35
  55.3956         34
  55.4142         20
  55.4328         19
  55.4513         23
  55.4699         31
  55.4885         29
  55.5071         21
  55.5256         29
  55.5442         32
  55.5628         33
  55.5814         24
  55.5999         30
  55.6185         29
  55.6371         27
  55.6557         29
  55.6742         19
  55.6928         20
  55.7114         32
  55.7300         22
  55.7485         34
  55.7671         22
  55.7857         30
  55.8043         30
  55.8228         22
  55.8414         27
  55.8600         29
  55.8786         29
  55.8971         39
  55.9157         25
  55.9343         30
  55.9529         39
  55.9714         25
  55.9900         25
  56.0086         34
  56.0272         21
  56.0457         27
  56.0643         25
  56.0829         33
  56.1015         25
  56.1201         29
  56.1386         30
  56.1572         30
  56.1758         31
  56.1944         18
  56.2129         38
  56.2315         31
  56.2501         29
  56.2687         35
  56.2872         31
  56.3058         23
  56.3244         37
  56.3430         22
  56.3615         36
  56.3801         26
  56.3987         28
  56.4173         23
  56.4358         28
  56.4544         29
  56.4730         37
  56.4916         20
  56.5101         21
  56.5287         28
  56.5473         35
  56.5659         35
  56.5844         32
  56.6030         29
  56.6216         29
  56.6402         34
  56.6587         31
  56.6773         19
  56.6959         34
  56.7145         20
  56.7330         30
  56.7516         19
  56.7702         38
  56.7888         25
  56.8073         29
  56.8259         23
  56.8445         42
  56.8631         25
  56.8817         39
  56.9002         24
  56.9188         27
  56.9374         27
  56.9560         17
  56.9745         26
  56.9931         29
  57.0117         24
  57.0303         32
  57.0488         27
  57.0674         29
  57.0860         25
  57.1046         19
  57.1231         31
  57.1417         17
  57.1603         29
  57.1789         37
  57.1974         26
  57.2160         33
  57.2346         23
  57.2532         25
  57.2717         28
  57.2903         26
  57.3089         40
  57.3275         21
  57.3460         22
  57.3646         33
  57.3832         30
  57.4018         19
  57.4203         28
  57.4389         27
  57.4575         23
  57.4761         29
  57.4946         25
  57.5132         25
  57.5318         21
  57.5504         37
  57.5689         26
  57.5875         26
  57.6061         23
  57.6247         30
  57.6433         20
  57.6618         26
  57.6804         24
  57.6990         34
  57.7176         33
  57.7361         26
  57.7547         34
  57.7733         35
  57.7919         23
  57.8104         20
  57.8290         31
  57.8476         24
  57.8662         24
  57.8847         22
  57.9033         17
  57.9219         24
  57.9405         29
  57.9590         22
  57.9776         21
  57.9962         27
  58.0148         33
  58.0333         40
  58.0519         33
  58.0705         28
  58.0891         25
  58.1076         31
  58.1262         30
  58.1448         31
  58.1634         29
  58.1819         24
  58.2005         29
  58.2191         29
  58.2377         26
  58.2562         24
  58.2748         20
  58.2934         36
  58.3120         27
  58.3305         25
  58.3491         22
  58.3677         31
  58.3863         31
  58.4049         22
  58.4234         23
  58.4420         18
  58.4606         35
  58.4792         39
  58.4977         31
  58.5163         27
  58.5349         25
  58.5535         23
  58.5720         22
  58.5906         27
  58.6092         31
  58.6278         31
  58.6463         13
  58.6649         20
  58.6835         26
  58.7021         36
  58.7206         30
  58.7392         26
  58.7578         20
  58.7764         19
  58.7949         20
  58.8135         32
  58.8321         40
  58.8507         24
  58.8692         35
  58.8878         29
  58.9064         23
  58.9250         29
  58.9435         24
  58.9621         21
  58.9807         29
  58.9993         23
  59.0178         22
  59.0364         24
  59.0550         23
  59.0736         45
  59.0921         33
  59.1107         38
  59.1293         28
  59.1479         35
  59.1664         24
  59.1850         17
  59.2036         32
  59.2222         22
  59.2408         25
  59.2593         34
  59.2779         30
  59.2965         19
  59.3151         29
  59.3336         25
  59.3522         30
  59.3708         25
  59.3894         33
  59.4079         20
  59.4265         22
  59.4451         37
  59.4637         33
  59.4822         26
  59.5008         31
  59.5194         32
  59.5380         32
  59.5565         27
  59.5751         20
  59.5937         33
  59.6123         22
  59.6308         32
  59.6494         27
  59.6680         20
  59.6866         20
  59.7051         29
  59.7237         15
  59.7423         24
  59.7609         29
  59.7794         29
  59.7980         26
  59.8166         29
  59.8352         27
  59.8537         31
  59.8723         27
  59.8909         28
  59.9095         27
  59.9280         32
  59.9466         22
  59.9652         29
  59.9838         24
  60.0024         29
