; (content of file Y:\Sam\Apurva-07-20-2022\puck4\ML_20220718_55_SJD_4_LaB6-2min.raw)
_FILEVERSION = 3
_SAMPLE = ML_20220718_55_SJD_4_LaB6-2min
_+SAMPLE = 
_SITE = USA
_USER = Administrator
_GONIOMETER_CODE = 20
; Goniometer : D8 theta/2theta, stage : Unknown
_ATTACHMENTS_CODE = 0
_GONIOMETER_RADIUS = 200.5
_FIXED_DIVSLIT = 0.6
_FIXED_SAMPLESLIT = 0
_SOLLER_SLITS = 2
_FIXED_DETSLIT = 9.55
_MONOCHROMATOR = 0
; Incident beam monochromator : None
_SOLLER_SLITS_2 = N
_THIN_FILM = N
_BETA_FILTER = Y
_FIXED_ANTISLIT = 5.89
_ANALYZER_CODE = 0
; Received beam analyzer : None
_DATEMEASURED = "26-Jul-2022 12:39:36"
_WL_UNIT = A
_WL1 = 1.5406
_WL2 = 1.54439
_WL3 = 1.39222
_WLRATIO = 0.5
_ANODE = Cu
_V4_INF_CREATOR = XRDWizard
_V4_INF_CREATOR_VERSION = V2.9.0.22
_V4_INF_WIZARD_VERSION = V2.9.0.22
_V4_INF_WIZARD_ADDINS = V2.9.0.22
_V4_INF_WIZARD_DOCTYPE = XRD
_V4_INF_OSUSER = McQueenLab
_V4_INF_USER = Administrator
_V4_INF_SITE = USA
_V4_INF_SAMPLEID = ML_20220718_55_SJD_4_LaB6-2min

; Data for range 1
_DRIVE = COUPLED
_STEPTIME = 5.64
_STEPSIZE = 0.0185756
_STEPMODE = C
_START = 5
_THETA = 2.5
_2THETA = 5
_KHI = 0
_PHI = 0
_X = 0
_Y = 0
_Z = 0
_DETECTOR = 5
; Detector type : Unknown
_DETECTORSLIT = unkn
_AUX1 = 0
_AUX2 = 0
_AUX3 = 0
_TIMESTARTED = 15
_TEMP_RATE = -1
_TEMP_DELAY = -1
_KV = 40
_MA = 40
_RANGE_WL = 1.5406
_3DPLANE = 0
_V4_ADDITIONALDETECTOR = 257
_V4_PSD2THETA = 3.4187
_V4_PSDCHANNEL1 = 0
_V4_PSDAPERTURE = 12.68
_V4_PSDTYPE = 5
_V4_PSDFIXED = 0
_V4_COUNTERS_MASK = 4096
_V4_DRIVES_MASK = 0
_V4_ENCODERS_MASK = 0
_2THETACOUNTS = 1
; 2THETA  PSD
   5.0000        138
   5.0186        127
   5.0372        134
   5.0557        131
   5.0743        120
   5.0929        144
   5.1115        121
   5.1300        128
   5.1486        134
   5.1672        128
   5.1858        114
   5.2043        129
   5.2229        119
   5.2415        127
   5.2601        130
   5.2786        108
   5.2972        118
   5.3158        111
   5.3344        125
   5.3529        108
   5.3715        120
   5.3901        105
   5.4087        122
   5.4272        114
   5.4458        109
   5.4644        117
   5.4830        104
   5.5015        123
   5.5201        114
   5.5387        125
   5.5573        110
   5.5758        128
   5.5944        104
   5.6130        110
   5.6316        109
   5.6501        135
   5.6687        108
   5.6873         93
   5.7059        101
   5.7244        112
   5.7430        101
   5.7616         88
   5.7802         83
   5.7988        108
   5.8173        101
   5.8359         99
   5.8545         87
   5.8731        110
   5.8916         93
   5.9102         89
   5.9288        101
   5.9474        102
   5.9659         87
   5.9845         88
   6.0031         85
   6.0217         98
   6.0402         95
   6.0588        115
   6.0774        101
   6.0960        102
   6.1145         73
   6.1331        114
   6.1517         88
   6.1703         82
   6.1888         87
   6.2074         86
   6.2260        105
   6.2446         79
   6.2631        104
   6.2817         94
   6.3003         85
   6.3189         89
   6.3374         96
   6.3560         95
   6.3746         86
   6.3932         91
   6.4117         94
   6.4303         98
   6.4489         77
   6.4675         90
   6.4860         89
   6.5046         93
   6.5232         80
   6.5418         73
   6.5604         84
   6.5789         85
   6.5975         83
   6.6161         73
   6.6347         79
   6.6532         93
   6.6718         79
   6.6904         88
   6.7090         90
   6.7275         70
   6.7461         90
   6.7647         96
   6.7833         91
   6.8018         74
   6.8204         81
   6.8390         76
   6.8576         72
   6.8761         81
   6.8947         89
   6.9133         91
   6.9319         74
   6.9504         75
   6.9690         73
   6.9876         70
   7.0062         78
   7.0247         77
   7.0433         84
   7.0619         87
   7.0805         71
   7.0990         76
   7.1176         81
   7.1362         77
   7.1548         81
   7.1733         77
   7.1919         87
   7.2105         69
   7.2291         81
   7.2476         85
   7.2662         89
   7.2848         86
   7.3034         84
   7.3220         83
   7.3405         69
   7.3591         62
   7.3777         78
   7.3963         72
   7.4148         85
   7.4334         66
   7.4520         86
   7.4706         95
   7.4891         81
   7.5077         97
   7.5263         74
   7.5449        102
   7.5634         61
   7.5820         81
   7.6006         88
   7.6192         87
   7.6377         87
   7.6563         87
   7.6749         91
   7.6935         75
   7.7120        104
   7.7306        100
   7.7492         97
   7.7678         82
   7.7863         80
   7.8049         77
   7.8235         83
   7.8421         93
   7.8606         75
   7.8792         93
   7.8978         91
   7.9164         75
   7.9349         92
   7.9535         92
   7.9721         85
   7.9907        108
   8.0092         86
   8.0278        103
   8.0464         95
   8.0650         84
   8.0835         96
   8.1021         86
   8.1207        106
   8.1393         79
   8.1579         92
   8.1764         87
   8.1950         98
   8.2136        110
   8.2322         86
   8.2507        114
   8.2693         85
   8.2879         77
   8.3065         94
   8.3250        106
   8.3436        102
   8.3622        108
   8.3808         94
   8.3993         96
   8.4179         79
   8.4365         99
   8.4551         85
   8.4736        102
   8.4922         91
   8.5108         86
   8.5294         84
   8.5479         88
   8.5665         93
   8.5851         90
   8.6037         95
   8.6222         97
   8.6408        111
   8.6594        110
   8.6780         98
   8.6965         97
   8.7151        109
   8.7337         92
   8.7523        105
   8.7708         82
   8.7894        104
   8.8080        107
   8.8266        102
   8.8451        101
   8.8637        123
   8.8823         76
   8.9009        105
   8.9195        100
   8.9380         98
   8.9566         98
   8.9752        107
   8.9938         97
   9.0123        107
   9.0309        104
   9.0495         93
   9.0681        108
   9.0866        109
   9.1052         88
   9.1238        103
   9.1424        110
   9.1609        101
   9.1795        113
   9.1981        107
   9.2167        116
   9.2352        119
   9.2538        103
   9.2724        106
   9.2910        111
   9.3095         96
   9.3281        109
   9.3467        116
   9.3653        106
   9.3838        111
   9.4024        105
   9.4210        104
   9.4396        121
   9.4581        115
   9.4767        117
   9.4953        110
   9.5139        115
   9.5324        101
   9.5510        105
   9.5696        116
   9.5882         98
   9.6067        125
   9.6253        118
   9.6439         82
   9.6625        106
   9.6811        114
   9.6996         95
   9.7182        114
   9.7368        107
   9.7554        132
   9.7739        124
   9.7925        135
   9.8111        119
   9.8297        107
   9.8482        114
   9.8668        107
   9.8854        124
   9.9040        111
   9.9225        121
   9.9411        124
   9.9597        119
   9.9783        109
   9.9968        126
  10.0154        120
  10.0340        126
  10.0526        130
  10.0711        115
  10.0897        120
  10.1083        124
  10.1269        112
  10.1454        113
  10.1640        127
  10.1826        125
  10.2012         83
  10.2197        120
  10.2383        107
  10.2569        124
  10.2755        117
  10.2940        143
  10.3126        113
  10.3312         97
  10.3498        126
  10.3683        123
  10.3869        112
  10.4055        122
  10.4241        103
  10.4427        118
  10.4612        107
  10.4798        113
  10.4984        139
  10.5170        115
  10.5355        113
  10.5541        118
  10.5727        129
  10.5913        125
  10.6098        109
  10.6284        107
  10.6470        114
  10.6656        116
  10.6841        143
  10.7027        114
  10.7213        111
  10.7399        119
  10.7584        100
  10.7770        110
  10.7956        122
  10.8142        119
  10.8327        125
  10.8513        115
  10.8699        102
  10.8885        117
  10.9070        113
  10.9256        128
  10.9442        113
  10.9628        125
  10.9813        109
  10.9999        139
  11.0185        116
  11.0371        113
  11.0556        118
  11.0742        109
  11.0928        113
  11.1114        134
  11.1299        112
  11.1485        127
  11.1671        118
  11.1857        102
  11.2043        108
  11.2228        133
  11.2414        114
  11.2600        125
  11.2786        117
  11.2971        116
  11.3157        117
  11.3343        114
  11.3529        119
  11.3714        134
  11.3900        129
  11.4086        112
  11.4272        111
  11.4457        118
  11.4643        116
  11.4829        120
  11.5015        118
  11.5200        116
  11.5386        109
  11.5572         98
  11.5758        130
  11.5943        124
  11.6129         99
  11.6315        111
  11.6501        116
  11.6686        125
  11.6872        121
  11.7058        113
  11.7244        108
  11.7429        119
  11.7615        103
  11.7801         94
  11.7987        127
  11.8172        117
  11.8358        129
  11.8544        103
  11.8730         99
  11.8915        118
  11.9101        115
  11.9287        111
  11.9473        122
  11.9659        120
  11.9844        138
  12.0030        113
  12.0216        119
  12.0402        124
  12.0587        118
  12.0773        109
  12.0959        113
  12.1145        115
  12.1330        105
  12.1516        103
  12.1702         87
  12.1888         98
  12.2073        108
  12.2259        108
  12.2445         99
  12.2631         99
  12.2816        116
  12.3002        106
  12.3188        126
  12.3374        104
  12.3559        108
  12.3745        113
  12.3931        109
  12.4117        123
  12.4302         91
  12.4488         91
  12.4674        112
  12.4860        122
  12.5045        107
  12.5231        102
  12.5417         86
  12.5603        108
  12.5788        106
  12.5974        113
  12.6160        101
  12.6346        108
  12.6531        109
  12.6717        104
  12.6903        120
  12.7089        121
  12.7274        117
  12.7460        109
  12.7646        124
  12.7832        104
  12.8018        109
  12.8203        100
  12.8389        102
  12.8575         79
  12.8761        118
  12.8946         86
  12.9132         96
  12.9318         99
  12.9504         95
  12.9689         95
  12.9875        109
  13.0061         85
  13.0247         87
  13.0432        101
  13.0618         84
  13.0804        110
  13.0990         94
  13.1175        103
  13.1361         99
  13.1547        118
  13.1733        100
  13.1918         94
  13.2104        121
  13.2290         99
  13.2476        109
  13.2661        104
  13.2847         85
  13.3033         92
  13.3219        112
  13.3404         91
  13.3590         94
  13.3776        103
  13.3962        104
  13.4147        103
  13.4333        113
  13.4519         81
  13.4705         89
  13.4890        105
  13.5076         80
  13.5262         78
  13.5448        122
  13.5634        106
  13.5819         98
  13.6005        106
  13.6191        112
  13.6377        104
  13.6562        108
  13.6748        107
  13.6934        101
  13.7120        106
  13.7305         87
  13.7491         93
  13.7677        112
  13.7863        107
  13.8048         94
  13.8234         87
  13.8420         85
  13.8606        108
  13.8791         93
  13.8977         80
  13.9163         95
  13.9349        103
  13.9534         97
  13.9720         84
  13.9906         95
  14.0092         97
  14.0277         89
  14.0463         82
  14.0649        109
  14.0835         87
  14.1020         77
  14.1206         86
  14.1392        105
  14.1578         90
  14.1763        101
  14.1949         84
  14.2135        103
  14.2321        107
  14.2506         80
  14.2692         90
  14.2878         90
  14.3064         78
  14.3250         87
  14.3435         78
  14.3621         82
  14.3807         77
  14.3993         93
  14.4178         74
  14.4364        103
  14.4550         86
  14.4736         80
  14.4921         80
  14.5107         77
  14.5293         84
  14.5479         78
  14.5664         89
  14.5850         86
  14.6036         85
  14.6222         87
  14.6407         83
  14.6593         85
  14.6779         72
  14.6965         66
  14.7150         77
  14.7336         96
  14.7522         83
  14.7708         83
  14.7893         79
  14.8079         78
  14.8265         76
  14.8451         86
  14.8636        109
  14.8822         88
  14.9008         94
  14.9194         91
  14.9379         78
  14.9565        109
  14.9751         88
  14.9937         79
  15.0122         86
  15.0308         81
  15.0494         80
  15.0680         77
  15.0866         78
  15.1051         89
  15.1237         84
  15.1423         98
  15.1609         92
  15.1794         80
  15.1980         77
  15.2166        108
  15.2352         80
  15.2537         90
  15.2723         79
  15.2909         92
  15.3095         85
  15.3280         76
  15.3466         88
  15.3652         89
  15.3838         78
  15.4023         73
  15.4209         69
  15.4395         77
  15.4581         83
  15.4766         90
  15.4952         80
  15.5138         89
  15.5324         83
  15.5509         78
  15.5695         97
  15.5881         75
  15.6067         78
  15.6252        105
  15.6438         74
  15.6624         74
  15.6810         79
  15.6995         79
  15.7181         78
  15.7367         80
  15.7553         87
  15.7738         73
  15.7924         86
  15.8110         83
  15.8296         64
  15.8482         79
  15.8667         69
  15.8853         85
  15.9039         89
  15.9225         92
  15.9410         74
  15.9596         92
  15.9782         84
  15.9968        100
  16.0153         83
  16.0339         63
  16.0525         77
  16.0711         88
  16.0896         68
  16.1082         89
  16.1268         77
  16.1454         90
  16.1639         83
  16.1825         64
  16.2011         84
  16.2197         82
  16.2382         78
  16.2568         82
  16.2754         84
  16.2940         90
  16.3125         89
  16.3311         81
  16.3497         73
  16.3683         97
  16.3868         78
  16.4054         77
  16.4240         87
  16.4426         63
  16.4611         82
  16.4797         62
  16.4983         68
  16.5169         74
  16.5354         77
  16.5540         62
  16.5726         80
  16.5912         77
  16.6097         84
  16.6283         87
  16.6469         72
  16.6655         69
  16.6841         84
  16.7026         80
  16.7212         80
  16.7398         77
  16.7584         82
  16.7769         71
  16.7955         75
  16.8141         83
  16.8327         73
  16.8512         79
  16.8698         86
  16.8884         94
  16.9070         92
  16.9255         71
  16.9441         74
  16.9627         71
  16.9813         73
  16.9998         80
  17.0184         76
  17.0370         68
  17.0556         87
  17.0741         95
  17.0927         93
  17.1113         89
  17.1299         81
  17.1484         91
  17.1670         92
  17.1856         82
  17.2042         79
  17.2227         82
  17.2413         69
  17.2599         76
  17.2785         91
  17.2970         64
  17.3156         86
  17.3342         81
  17.3528         70
  17.3713         70
  17.3899         79
  17.4085         79
  17.4271         64
  17.4457         86
  17.4642         85
  17.4828         86
  17.5014         61
  17.5200         78
  17.5385         87
  17.5571         75
  17.5757         79
  17.5943         84
  17.6128         89
  17.6314         81
  17.6500         68
  17.6686         88
  17.6871         79
  17.7057         75
  17.7243         86
  17.7429         83
  17.7614         69
  17.7800         92
  17.7986         83
  17.8172         75
  17.8357         85
  17.8543         95
  17.8729         83
  17.8915         70
  17.9100         73
  17.9286         80
  17.9472         74
  17.9658         85
  17.9843         87
  18.0029         86
  18.0215         78
  18.0401         91
  18.0586         76
  18.0772         69
  18.0958         88
  18.1144         87
  18.1329         87
  18.1515         77
  18.1701         68
  18.1887         71
  18.2073         65
  18.2258         88
  18.2444         74
  18.2630         71
  18.2816         82
  18.3001         91
  18.3187         87
  18.3373         87
  18.3559         83
  18.3744         84
  18.3930         81
  18.4116         89
  18.4302         90
  18.4487         82
  18.4673         72
  18.4859         93
  18.5045         69
  18.5230         89
  18.5416         72
  18.5602         99
  18.5788         72
  18.5973         81
  18.6159         75
  18.6345         95
  18.6531         74
  18.6716         95
  18.6902         83
  18.7088         84
  18.7274         87
  18.7459         82
  18.7645         85
  18.7831         71
  18.8017         88
  18.8202         81
  18.8388         69
  18.8574         71
  18.8760         95
  18.8945         97
  18.9131         87
  18.9317         87
  18.9503         91
  18.9689         81
  18.9874         73
  19.0060         71
  19.0246         76
  19.0432         82
  19.0617         77
  19.0803         93
  19.0989         93
  19.1175         91
  19.1360         93
  19.1546         83
  19.1732        100
  19.1918         93
  19.2103         66
  19.2289         89
  19.2475         88
  19.2661         87
  19.2846         85
  19.3032         81
  19.3218         87
  19.3404         78
  19.3589         96
  19.3775         75
  19.3961         90
  19.4147         89
  19.4332         77
  19.4518         84
  19.4704         85
  19.4890         90
  19.5075        101
  19.5261         86
  19.5447         95
  19.5633         97
  19.5818         87
  19.6004         78
  19.6190         89
  19.6376         70
  19.6561         80
  19.6747        106
  19.6933         84
  19.7119         78
  19.7305         90
  19.7490         89
  19.7676         82
  19.7862         88
  19.8048         90
  19.8233        103
  19.8419         95
  19.8605         97
  19.8791         77
  19.8976        116
  19.9162         96
  19.9348         82
  19.9534         92
  19.9719         74
  19.9905         80
  20.0091         73
  20.0277         81
  20.0462         88
  20.0648         94
  20.0834         85
  20.1020         80
  20.1205         84
  20.1391         82
  20.1577         92
  20.1763         96
  20.1948        107
  20.2134         83
  20.2320         77
  20.2506        104
  20.2691         91
  20.2877         94
  20.3063         95
  20.3249         85
  20.3434         91
  20.3620         90
  20.3806         83
  20.3992         99
  20.4177         98
  20.4363         63
  20.4549         97
  20.4735         89
  20.4921         95
  20.5106         79
  20.5292         84
  20.5478         92
  20.5664         81
  20.5849         85
  20.6035         83
  20.6221        100
  20.6407         82
  20.6592        107
  20.6778         97
  20.6964         87
  20.7150         81
  20.7335         98
  20.7521        102
  20.7707        100
  20.7893         81
  20.8078        100
  20.8264         78
  20.8450        108
  20.8636        105
  20.8821         98
  20.9007         97
  20.9193         99
  20.9379        107
  20.9564         82
  20.9750         94
  20.9936         96
  21.0122         87
  21.0307         85
  21.0493        111
  21.0679        126
  21.0865         96
  21.1050         96
  21.1236        135
  21.1422         95
  21.1608        114
  21.1793        121
  21.1979        122
  21.2165        164
  21.2351        158
  21.2537        164
  21.2722        142
  21.2908        154
  21.3094        158
  21.3280        194
  21.3465        243
  21.3651        284
  21.3837        243
  21.4023        194
  21.4208        174
  21.4394        156
  21.4580        121
  21.4766        105
  21.4951        103
  21.5137        100
  21.5323        100
  21.5509        100
  21.5694        105
  21.5880        104
  21.6066        101
  21.6252         90
  21.6437        101
  21.6623        101
  21.6809        101
  21.6995        103
  21.7180        104
  21.7366         85
  21.7552         90
  21.7738         93
  21.7923         94
  21.8109         82
  21.8295        101
  21.8481        100
  21.8666         99
  21.8852        110
  21.9038         91
  21.9224         94
  21.9409        104
  21.9595         97
  21.9781         99
  21.9967         99
  22.0152        108
  22.0338        100
  22.0524         99
  22.0710        108
  22.0896         92
  22.1081         95
  22.1267        103
  22.1453         98
  22.1639         97
  22.1824         98
  22.2010        125
  22.2196         85
  22.2382        102
  22.2567         86
  22.2753         92
  22.2939         60
  22.3125         87
  22.3310         92
  22.3496        105
  22.3682        104
  22.3868         91
  22.4053         79
  22.4239         94
  22.4425         89
  22.4611         76
  22.4796        103
  22.4982         78
  22.5168         96
  22.5354        106
  22.5539         97
  22.5725         93
  22.5911         88
  22.6097         91
  22.6282         89
  22.6468         89
  22.6654        104
  22.6840        114
  22.7025         80
  22.7211        102
  22.7397         74
  22.7583         88
  22.7768        102
  22.7954         91
  22.8140         94
  22.8326        112
  22.8512        104
  22.8697         94
  22.8883        103
  22.9069        103
  22.9255        112
  22.9440         92
  22.9626         94
  22.9812         92
  22.9998         82
  23.0183        108
  23.0369         97
  23.0555         94
  23.0741        101
  23.0926         97
  23.1112         86
  23.1298        104
  23.1484         79
  23.1669        109
  23.1855         86
  23.2041         94
  23.2227        102
  23.2412        107
  23.2598         98
  23.2784        108
  23.2970         98
  23.3155        114
  23.3341        107
  23.3527         95
  23.3713         99
  23.3898        107
  23.4084        101
  23.4270        105
  23.4456         87
  23.4641         99
  23.4827        101
  23.5013         92
  23.5199        101
  23.5384         97
  23.5570        104
  23.5756        113
  23.5942         92
  23.6128         90
  23.6313         98
  23.6499         93
  23.6685        109
  23.6871         89
  23.7056         99
  23.7242        101
  23.7428        105
  23.7614         92
  23.7799        101
  23.7985         88
  23.8171        111
  23.8357        115
  23.8542        105
  23.8728         84
  23.8914         89
  23.9100        105
  23.9285         79
  23.9471         84
  23.9657        100
  23.9843         96
  24.0028         91
  24.0214        103
  24.0400         81
  24.0586        104
  24.0771        107
  24.0957         96
  24.1143         97
  24.1329         79
  24.1514        101
  24.1700        125
  24.1886        108
  24.2072        104
  24.2257        101
  24.2443         93
  24.2629        117
  24.2815        106
  24.3000        110
  24.3186        109
  24.3372         97
  24.3558        124
  24.3744        107
  24.3929        108
  24.4115         93
  24.4301        113
  24.4487        117
  24.4672         95
  24.4858        116
  24.5044         99
  24.5230        108
  24.5415        109
  24.5601         95
  24.5787         90
  24.5973        104
  24.6158         97
  24.6344         83
  24.6530         99
  24.6716         94
  24.6901        107
  24.7087         89
  24.7273         99
  24.7459         97
  24.7644        100
  24.7830         73
  24.8016         87
  24.8202        103
  24.8387         92
  24.8573        101
  24.8759         96
  24.8945        111
  24.9130        104
  24.9316         82
  24.9502        101
  24.9688        107
  24.9873        109
  25.0059        110
  25.0245         93
  25.0431        117
  25.0616         92
  25.0802        105
  25.0988         95
  25.1174         94
  25.1360        100
  25.1545         92
  25.1731        105
  25.1917        103
  25.2103         91
  25.2288        103
  25.2474        102
  25.2660        102
  25.2846        107
  25.3031         95
  25.3217        107
  25.3403         83
  25.3589        108
  25.3774         91
  25.3960         89
  25.4146        107
  25.4332         90
  25.4517        107
  25.4703        110
  25.4889         89
  25.5075         94
  25.5260         87
  25.5446        106
  25.5632         97
  25.5818         95
  25.6003         89
  25.6189         99
  25.6375         96
  25.6561         95
  25.6746        111
  25.6932         81
  25.7118         99
  25.7304         91
  25.7489        105
  25.7675        100
  25.7861        113
  25.8047        107
  25.8232         92
  25.8418        105
  25.8604        109
  25.8790        103
  25.8976        109
  25.9161         95
  25.9347         92
  25.9533        105
  25.9719         98
  25.9904        104
  26.0090         90
  26.0276         79
  26.0462         83
  26.0647         91
  26.0833         97
  26.1019         97
  26.1205         95
  26.1390         93
  26.1576        108
  26.1762         78
  26.1948        100
  26.2133         70
  26.2319         82
  26.2505        110
  26.2691        112
  26.2876         94
  26.3062         84
  26.3248         88
  26.3434         85
  26.3619         94
  26.3805         96
  26.3991         98
  26.4177         82
  26.4362         97
  26.4548         89
  26.4734        102
  26.4920         98
  26.5105         99
  26.5291        104
  26.5477         89
  26.5663        100
  26.5848         95
  26.6034         95
  26.6220        105
  26.6406         88
  26.6591         61
  26.6777         81
  26.6963        108
  26.7149         89
  26.7335         92
  26.7520         78
  26.7706         98
  26.7892        104
  26.8078         89
  26.8263         98
  26.8449        100
  26.8635         98
  26.8821         79
  26.9006         96
  26.9192        100
  26.9378         83
  26.9564         92
  26.9749         82
  26.9935         95
  27.0121        100
  27.0307         90
  27.0492        103
  27.0678         85
  27.0864        100
  27.1050         94
  27.1235        109
  27.1421        124
  27.1607        107
  27.1793        129
  27.1978        127
  27.2164        121
  27.2350        121
  27.2536        119
  27.2721        112
  27.2907        102
  27.3093         94
  27.3279        101
  27.3464        107
  27.3650        103
  27.3836         87
  27.4022         88
  27.4207         90
  27.4393         87
  27.4579        106
  27.4765        102
  27.4951         74
  27.5136         78
  27.5322        112
  27.5508         89
  27.5694         95
  27.5879         93
  27.6065        101
  27.6251         87
  27.6437        107
  27.6622         87
  27.6808         94
  27.6994        104
  27.7180         91
  27.7365         83
  27.7551         95
  27.7737         94
  27.7923         87
  27.8108         98
  27.8294         82
  27.8480         79
  27.8666        100
  27.8851         88
  27.9037         85
  27.9223         91
  27.9409         95
  27.9594         85
  27.9780         76
  27.9966         74
  28.0152         88
  28.0337         98
  28.0523         94
  28.0709         80
  28.0895         74
  28.1080         74
  28.1266         98
  28.1452         78
  28.1638         93
  28.1823         88
  28.2009         90
  28.2195         82
  28.2381         80
  28.2567        107
  28.2752         82
  28.2938         61
  28.3124         81
  28.3310         79
  28.3495         65
  28.3681         73
  28.3867         86
  28.4053         78
  28.4238         87
  28.4424         88
  28.4610         93
  28.4796         86
  28.4981         84
  28.5167         82
  28.5353         78
  28.5539         63
  28.5724         80
  28.5910         72
  28.6096         81
  28.6282         76
  28.6467         90
  28.6653         81
  28.6839         77
  28.7025         71
  28.7210         81
  28.7396         63
  28.7582         94
  28.7768         86
  28.7953         89
  28.8139         93
  28.8325         98
  28.8511         77
  28.8696         97
  28.8882         67
  28.9068         82
  28.9254         78
  28.9439         65
  28.9625         74
  28.9811         96
  28.9997         87
  29.0183         84
  29.0368         73
  29.0554         93
  29.0740         93
  29.0926         79
  29.1111         74
  29.1297         75
  29.1483         86
  29.1669         80
  29.1854         78
  29.2040         76
  29.2226         91
  29.2412         69
  29.2597         86
  29.2783         95
  29.2969         75
  29.3155         76
  29.3340         79
  29.3526         85
  29.3712         80
  29.3898         66
  29.4083         93
  29.4269         82
  29.4455         77
  29.4641         76
  29.4826         89
  29.5012         77
  29.5198         79
  29.5384         73
  29.5569         64
  29.5755         75
  29.5941         86
  29.6127         70
  29.6312         81
  29.6498         70
  29.6684         91
  29.6870         98
  29.7055         90
  29.7241         72
  29.7427         70
  29.7613         76
  29.7799         87
  29.7984         85
  29.8170         73
  29.8356         80
  29.8542         63
  29.8727         84
  29.8913         68
  29.9099         95
  29.9285         66
  29.9470         91
  29.9656         77
  29.9842         78
  30.0028         86
  30.0213         78
  30.0399         67
  30.0585         95
  30.0771         92
  30.0956         66
  30.1142         74
  30.1328         79
  30.1514         82
  30.1699         88
  30.1885         84
  30.2071         83
  30.2257         85
  30.2442         92
  30.2628         80
  30.2814         73
  30.3000         86
  30.3185        103
  30.3371        107
  30.3557        131
  30.3743        160
  30.3928        151
  30.4114        141
  30.4300        106
  30.4486        124
  30.4671        122
  30.4857         88
  30.5043         72
  30.5229         71
  30.5415         71
  30.5600         80
  30.5786         80
  30.5972         76
  30.6158         76
  30.6343         90
  30.6529         68
  30.6715         67
  30.6901         75
  30.7086         70
  30.7272         65
  30.7458         64
  30.7644         82
  30.7829         71
  30.8015         73
  30.8201         71
  30.8387         67
  30.8572         80
  30.8758         74
  30.8944         62
  30.9130         69
  30.9315         76
  30.9501         67
  30.9687         70
  30.9873         76
  31.0058         65
  31.0244         68
  31.0430         55
  31.0616         84
  31.0801         65
  31.0987         71
  31.1173         78
  31.1359         65
  31.1544         67
  31.1730         64
  31.1916         59
  31.2102         55
  31.2287         65
  31.2473         73
  31.2659         62
  31.2845         78
  31.3030         57
  31.3216         74
  31.3402         72
  31.3588         63
  31.3774         63
  31.3959         65
  31.4145         74
  31.4331         67
  31.4517         73
  31.4702         65
  31.4888         67
  31.5074         61
  31.5260         90
  31.5445         69
  31.5631         71
  31.5817         62
  31.6003         54
  31.6188         71
  31.6374         61
  31.6560         72
  31.6746         69
  31.6931         71
  31.7117         76
  31.7303         62
  31.7489         59
  31.7674         63
  31.7860         66
  31.8046         65
  31.8232         59
  31.8417         75
  31.8603         60
  31.8789         66
  31.8975         76
  31.9160         56
  31.9346         52
  31.9532         79
  31.9718         81
  31.9903         57
  32.0089         73
  32.0275         74
  32.0461         70
  32.0646         68
  32.0832         80
  32.1018         58
  32.1204         73
  32.1390         61
  32.1575         74
  32.1761         71
  32.1947         70
  32.2133         58
  32.2318         70
  32.2504         64
  32.2690         74
  32.2876         57
  32.3061         78
  32.3247         57
  32.3433         73
  32.3619         83
  32.3804         68
  32.3990         58
  32.4176         71
  32.4362         81
  32.4547         77
  32.4733         69
  32.4919         61
  32.5105         72
  32.5290         81
  32.5476         73
  32.5662         83
  32.5848         64
  32.6033         61
  32.6219         57
  32.6405         54
  32.6591         61
  32.6776         57
  32.6962         60
  32.7148         73
  32.7334         51
  32.7519         62
  32.7705         50
  32.7891         60
  32.8077         73
  32.8262         59
  32.8448         58
  32.8634         48
  32.8820         55
  32.9006         60
  32.9191         39
  32.9377         61
  32.9563         65
  32.9749         42
  32.9934         70
  33.0120         69
  33.0306         61
  33.0492         55
  33.0677         65
  33.0863         58
  33.1049         47
  33.1235         58
  33.1420         58
  33.1606         83
  33.1792         68
  33.1978         57
  33.2163         64
  33.2349         59
  33.2535         46
  33.2721         61
  33.2906         62
  33.3092         56
  33.3278         50
  33.3464         64
  33.3649         55
  33.3835         60
  33.4021         68
  33.4207         53
  33.4392         53
  33.4578         70
  33.4764         61
  33.4950         59
  33.5135         51
  33.5321         64
  33.5507         50
  33.5693         63
  33.5878         61
  33.6064         48
  33.6250         63
  33.6436         71
  33.6622         65
  33.6807         57
  33.6993         52
  33.7179         49
  33.7365         53
  33.7550         66
  33.7736         61
  33.7922         56
  33.8108         66
  33.8293         72
  33.8479         47
  33.8665         54
  33.8851         55
  33.9036         53
  33.9222         60
  33.9408         57
  33.9594         52
  33.9779         53
  33.9965         53
  34.0151         50
  34.0337         53
  34.0522         56
  34.0708         61
  34.0894         54
  34.1080         62
  34.1265         64
  34.1451         61
  34.1637         54
  34.1823         44
  34.2008         56
  34.2194         52
  34.2380         67
  34.2566         66
  34.2751         56
  34.2937         61
  34.3123         55
  34.3309         56
  34.3494         65
  34.3680         54
  34.3866         52
  34.4052         53
  34.4238         45
  34.4423         58
  34.4609         48
  34.4795         63
  34.4981         57
  34.5166         60
  34.5352         51
  34.5538         56
  34.5724         57
  34.5909         60
  34.6095         61
  34.6281         60
  34.6467         49
  34.6652         67
  34.6838         65
  34.7024         67
  34.7210         81
  34.7395         68
  34.7581         60
  34.7767         86
  34.7953         78
  34.8138         84
  34.8324         60
  34.8510         67
  34.8696         62
  34.8881         76
  34.9067         60
  34.9253         60
  34.9439         51
  34.9624         50
  34.9810         51
  34.9996         55
  35.0182         52
  35.0367         59
  35.0553         50
  35.0739         59
  35.0925         57
  35.1110         54
  35.1296         49
  35.1482         55
  35.1668         45
  35.1854         56
  35.2039         52
  35.2225         62
  35.2411         34
  35.2597         45
  35.2782         52
  35.2968         37
  35.3154         53
  35.3340         49
  35.3525         41
  35.3711         52
  35.3897         44
  35.4083         44
  35.4268         55
  35.4454         57
  35.4640         53
  35.4826         44
  35.5011         49
  35.5197         62
  35.5383         41
  35.5569         49
  35.5754         89
  35.5940         42
  35.6126         44
  35.6312         51
  35.6497         50
  35.6683         53
  35.6869         39
  35.7055         51
  35.7240         56
  35.7426         54
  35.7612         52
  35.7798         42
  35.7983         40
  35.8169         53
  35.8355         57
  35.8541         43
  35.8726         60
  35.8912         44
  35.9098         42
  35.9284         50
  35.9469         55
  35.9655         50
  35.9841         52
  36.0027         39
  36.0213         42
  36.0398         47
  36.0584         45
  36.0770         31
  36.0956         54
  36.1141         51
  36.1327         48
  36.1513         45
  36.1699         48
  36.1884         52
  36.2070         43
  36.2256         51
  36.2442         60
  36.2627         49
  36.2813         50
  36.2999         51
  36.3185         54
  36.3370         64
  36.3556         42
  36.3742         46
  36.3928         46
  36.4113         52
  36.4299         51
  36.4485         49
  36.4671         51
  36.4856         48
  36.5042         48
  36.5228         50
  36.5414         43
  36.5599         39
  36.5785         41
  36.5971         51
  36.6157         52
  36.6342         43
  36.6528         47
  36.6714         50
  36.6900         40
  36.7085         54
  36.7271         41
  36.7457         51
  36.7643         41
  36.7829         49
  36.8014         34
  36.8200         49
  36.8386         48
  36.8572         46
  36.8757         54
  36.8943         46
  36.9129         40
  36.9315         43
  36.9500         51
  36.9686         57
  36.9872         42
  37.0058         47
  37.0243         53
  37.0429         46
  37.0615         57
  37.0801         51
  37.0986         40
  37.1172         51
  37.1358         45
  37.1544         47
  37.1729         62
  37.1915         36
  37.2101         41
  37.2287         49
  37.2472         51
  37.2658         47
  37.2844         53
  37.3030         58
  37.3215         46
  37.3401         51
  37.3587         47
  37.3773         47
  37.3958         51
  37.4144         59
  37.4330         70
  37.4516         68
  37.4701         55
  37.4887         50
  37.5073         53
  37.5259         60
  37.5445         54
  37.5630         63
  37.5816         51
  37.6002         49
  37.6188         46
  37.6373         54
  37.6559         47
  37.6745         48
  37.6931         37
  37.7116         41
  37.7302         38
  37.7488         41
  37.7674         44
  37.7859         46
  37.8045         40
  37.8231         50
  37.8417         39
  37.8602         42
  37.8788         34
  37.8974         44
  37.9160         60
  37.9345         26
  37.9531         43
  37.9717         45
  37.9903         41
  38.0088         50
  38.0274         52
  38.0460         40
  38.0646         44
  38.0831         46
  38.1017         42
  38.1203         37
  38.1389         41
  38.1574         38
  38.1760         45
  38.1946         31
  38.2132         40
  38.2317         41
  38.2503         34
  38.2689         32
  38.2875         29
  38.3061         37
  38.3246         51
  38.3432         37
  38.3618         48
  38.3804         27
  38.3989         35
  38.4175         42
  38.4361         46
  38.4547         40
  38.4732         41
  38.4918         39
  38.5104         41
  38.5290         45
  38.5475         37
  38.5661         34
  38.5847         32
  38.6033         39
  38.6218         49
  38.6404         42
  38.6590         38
  38.6776         29
  38.6961         39
  38.7147         47
  38.7333         38
  38.7519         34
  38.7704         44
  38.7890         50
  38.8076         38
  38.8262         45
  38.8447         31
  38.8633         40
  38.8819         43
  38.9005         38
  38.9190         39
  38.9376         43
  38.9562         33
  38.9748         45
  38.9933         29
  39.0119         40
  39.0305         49
  39.0491         33
  39.0677         43
  39.0862         41
  39.1048         43
  39.1234         41
  39.1420         42
  39.1605         24
  39.1791         36
  39.1977         45
  39.2163         46
  39.2348         54
  39.2534         48
  39.2720         53
  39.2906         38
  39.3091         33
  39.3277         44
  39.3463         36
  39.3649         35
  39.3834         43
  39.4020         45
  39.4206         34
  39.4392         39
  39.4577         43
  39.4763         52
  39.4949         39
  39.5135         43
  39.5320         33
  39.5506         37
  39.5692         38
  39.5878         34
  39.6063         27
  39.6249         35
  39.6435         54
  39.6621         39
  39.6806         40
  39.6992         34
  39.7178         40
  39.7364         34
  39.7549         44
  39.7735         36
  39.7921         39
  39.8107         35
  39.8293         44
  39.8478         43
  39.8664         41
  39.8850         46
  39.9036         39
  39.9221         35
  39.9407         39
  39.9593         28
  39.9779         47
  39.9964         43
  40.0150         39
  40.0336         26
  40.0522         42
  40.0707         43
  40.0893         46
  40.1079         31
  40.1265         33
  40.1450         49
  40.1636         33
  40.1822         34
  40.2008         45
  40.2193         41
  40.2379         36
  40.2565         31
  40.2751         35
  40.2936         37
  40.3122         34
  40.3308         27
  40.3494         51
  40.3679         33
  40.3865         38
  40.4051         27
  40.4237         30
  40.4422         42
  40.4608         47
  40.4794         39
  40.4980         48
  40.5165         39
  40.5351         32
  40.5537         34
  40.5723         44
  40.5908         35
  40.6094         46
  40.6280         34
  40.6466         38
  40.6652         35
  40.6837         33
  40.7023         37
  40.7209         30
  40.7395         38
  40.7580         34
  40.7766         45
  40.7952         30
  40.8138         39
  40.8323         42
  40.8509         38
  40.8695         35
  40.8881         40
  40.9066         40
  40.9252         32
  40.9438         33
  40.9624         43
  40.9809         46
  40.9995         35
  41.0181         48
  41.0367         36
  41.0552         27
  41.0738         43
  41.0924         42
  41.1110         37
  41.1295         24
  41.1481         47
  41.1667         44
  41.1853         35
  41.2038         39
  41.2224         51
  41.2410         38
  41.2596         34
  41.2781         31
  41.2967         35
  41.3153         28
  41.3339         32
  41.3524         37
  41.3710         34
  41.3896         30
  41.4082         39
  41.4268         30
  41.4453         47
  41.4639         34
  41.4825         37
  41.5011         28
  41.5196         38
  41.5382         35
  41.5568         46
  41.5754         45
  41.5939         43
  41.6125         35
  41.6311         48
  41.6497         25
  41.6682         27
  41.6868         34
  41.7054         35
  41.7240         39
  41.7425         45
  41.7611         37
  41.7797         38
  41.7983         33
  41.8168         39
  41.8354         37
  41.8540         41
  41.8726         48
  41.8911         30
  41.9097         39
  41.9283         32
  41.9469         28
  41.9654         42
  41.9840         39
  42.0026         34
  42.0212         33
  42.0397         34
  42.0583         36
  42.0769         37
  42.0955         38
  42.1140         41
  42.1326         36
  42.1512         45
  42.1698         38
  42.1884         57
  42.2069         41
  42.2255         30
  42.2441         45
  42.2627         34
  42.2812         40
  42.2998         43
  42.3184         33
  42.3370         31
  42.3555         38
  42.3741         39
  42.3927         42
  42.4113         41
  42.4298         33
  42.4484         45
  42.4670         27
  42.4856         37
  42.5041         46
  42.5227         23
  42.5413         27
  42.5599         42
  42.5784         54
  42.5970         35
  42.6156         31
  42.6342         36
  42.6527         45
  42.6713         46
  42.6899         37
  42.7085         45
  42.7270         52
  42.7456         27
  42.7642         42
  42.7828         34
  42.8013         47
  42.8199         39
  42.8385         38
  42.8571         38
  42.8756         32
  42.8942         37
  42.9128         34
  42.9314         35
  42.9500         33
  42.9685         36
  42.9871         35
  43.0057         40
  43.0243         33
  43.0428         29
  43.0614         33
  43.0800         38
  43.0986         41
  43.1171         35
  43.1357         31
  43.1543         47
  43.1729         31
  43.1914         42
  43.2100         46
  43.2286         36
  43.2472         48
  43.2657         45
  43.2843         36
  43.3029         39
  43.3215         49
  43.3400         41
  43.3586         42
  43.3772         49
  43.3958         41
  43.4143         44
  43.4329         35
  43.4515         35
  43.4701         43
  43.4886         41
  43.5072         67
  43.5258         65
  43.5444         42
  43.5629         41
  43.5815         49
  43.6001         51
  43.6187         49
  43.6372         52
  43.6558         45
  43.6744         39
  43.6930         41
  43.7116         39
  43.7301         38
  43.7487         28
  43.7673         37
  43.7859         47
  43.8044         43
  43.8230         33
  43.8416         37
  43.8602         31
  43.8787         31
  43.8973         26
  43.9159         39
  43.9345         37
  43.9530         35
  43.9716         41
  43.9902         31
  44.0088         39
  44.0273         40
  44.0459         33
  44.0645         33
  44.0831         38
  44.1016         33
  44.1202         36
  44.1388         32
  44.1574         31
  44.1759         40
  44.1945         36
  44.2131         42
  44.2317         45
  44.2502         36
  44.2688         40
  44.2874         34
  44.3060         31
  44.3245         38
  44.3431         28
  44.3617         39
  44.3803         27
  44.3988         35
  44.4174         35
  44.4360         47
  44.4546         35
  44.4732         39
  44.4917         48
  44.5103         33
  44.5289         39
  44.5475         40
  44.5660         46
  44.5846         38
  44.6032         36
  44.6218         35
  44.6403         49
  44.6589         38
  44.6775         40
  44.6961         46
  44.7146         38
  44.7332         42
  44.7518         34
  44.7704         27
  44.7889         31
  44.8075         26
  44.8261         39
  44.8447         40
  44.8632         42
  44.8818         26
  44.9004         40
  44.9190         37
  44.9375         30
  44.9561         33
  44.9747         35
  44.9933         35
  45.0118         35
  45.0304         41
  45.0490         49
  45.0676         24
  45.0861         34
  45.1047         34
  45.1233         29
  45.1419         42
  45.1604         31
  45.1790         25
  45.1976         35
  45.2162         43
  45.2347         37
  45.2533         21
  45.2719         27
  45.2905         30
  45.3091         26
  45.3276         29
  45.3462         20
  45.3648         36
  45.3834         27
  45.4019         38
  45.4205         33
  45.4391         31
  45.4577         41
  45.4762         32
  45.4948         31
  45.5134         29
  45.5320         41
  45.5505         40
  45.5691         36
  45.5877         45
  45.6063         29
  45.6248         42
  45.6434         33
  45.6620         43
  45.6806         38
  45.6991         37
  45.7177         26
  45.7363         37
  45.7549         39
  45.7734         32
  45.7920         38
  45.8106         31
  45.8292         36
  45.8477         33
  45.8663         34
  45.8849         25
  45.9035         44
  45.9220         24
  45.9406         44
  45.9592         36
  45.9778         32
  45.9963         37
  46.0149         25
  46.0335         37
  46.0521         37
  46.0707         30
  46.0892         32
  46.1078         28
  46.1264         41
  46.1450         26
  46.1635         23
  46.1821         33
  46.2007         32
  46.2193         41
  46.2378         28
  46.2564         28
  46.2750         35
  46.2936         22
  46.3121         33
  46.3307         29
  46.3493         39
  46.3679         29
  46.3864         22
  46.4050         30
  46.4236         33
  46.4422         43
  46.4607         30
  46.4793         37
  46.4979         27
  46.5165         28
  46.5350         39
  46.5536         32
  46.5722         37
  46.5908         31
  46.6093         34
  46.6279         32
  46.6465         45
  46.6651         39
  46.6836         22
  46.7022         30
  46.7208         24
  46.7394         31
  46.7579         28
  46.7765         27
  46.7951         26
  46.8137         38
  46.8323         39
  46.8508         31
  46.8694         36
  46.8880         27
  46.9066         29
  46.9251         32
  46.9437         39
  46.9623         25
  46.9809         36
  46.9994         33
  47.0180         24
  47.0366         26
  47.0552         29
  47.0737         26
  47.0923         27
  47.1109         37
  47.1295         27
  47.1480         26
  47.1666         37
  47.1852         41
  47.2038         32
  47.2223         21
  47.2409         32
  47.2595         25
  47.2781         26
  47.2966         40
  47.3152         41
  47.3338         36
  47.3524         29
  47.3709         31
  47.3895         25
  47.4081         28
  47.4267         32
  47.4452         28
  47.4638         33
  47.4824         20
  47.5010         35
  47.5195         24
  47.5381         32
  47.5567         27
  47.5753         25
  47.5939         39
  47.6124         38
  47.6310         24
  47.6496         36
  47.6682         37
  47.6867         27
  47.7053         43
  47.7239         27
  47.7425         35
  47.7610         36
  47.7796         31
  47.7982         39
  47.8168         29
  47.8353         34
  47.8539         36
  47.8725         28
  47.8911         34
  47.9096         26
  47.9282         27
  47.9468         31
  47.9654         35
  47.9839         31
  48.0025         27
  48.0211         33
  48.0397         32
  48.0582         33
  48.0768         22
  48.0954         36
  48.1140         32
  48.1325         43
  48.1511         37
  48.1697         33
  48.1883         30
  48.2068         38
  48.2254         34
  48.2440         33
  48.2626         32
  48.2811         29
  48.2997         40
  48.3183         24
  48.3369         22
  48.3555         30
  48.3740         29
  48.3926         40
  48.4112         26
  48.4298         32
  48.4483         36
  48.4669         40
  48.4855         39
  48.5041         31
  48.5226         25
  48.5412         34
  48.5598         37
  48.5784         29
  48.5969         34
  48.6155         28
  48.6341         32
  48.6527         36
  48.6712         25
  48.6898         30
  48.7084         31
  48.7270         33
  48.7455         36
  48.7641         38
  48.7827         35
  48.8013         34
  48.8198         36
  48.8384         30
  48.8570         43
  48.8756         34
  48.8941         33
  48.9127         44
  48.9313         39
  48.9499         55
  48.9684         56
  48.9870         38
  49.0056         39
  49.0242         42
  49.0427         39
  49.0613         36
  49.0799         46
  49.0985         46
  49.1171         38
  49.1356         29
  49.1542         39
  49.1728         27
  49.1914         27
  49.2099         33
  49.2285         48
  49.2471         35
  49.2657         28
  49.2842         28
  49.3028         27
  49.3214         32
  49.3400         27
  49.3585         34
  49.3771         38
  49.3957         29
  49.4143         32
  49.4328         30
  49.4514         30
  49.4700         22
  49.4886         35
  49.5071         18
  49.5257         29
  49.5443         29
  49.5629         29
  49.5814         38
  49.6000         34
  49.6186         22
  49.6372         28
  49.6557         38
  49.6743         28
  49.6929         31
  49.7115         35
  49.7300         26
  49.7486         30
  49.7672         26
  49.7858         24
  49.8043         31
  49.8229         23
  49.8415         33
  49.8601         26
  49.8786         22
  49.8972         28
  49.9158         24
  49.9344         36
  49.9530         31
  49.9715         30
  49.9901         33
  50.0087         31
  50.0273         29
  50.0458         26
  50.0644         24
  50.0830         38
  50.1016         38
  50.1201         25
  50.1387         35
  50.1573         32
  50.1759         22
  50.1944         31
  50.2130         28
  50.2316         39
  50.2502         23
  50.2687         24
  50.2873         26
  50.3059         28
  50.3245         28
  50.3430         30
  50.3616         40
  50.3802         29
  50.3988         29
  50.4173         25
  50.4359         21
  50.4545         28
  50.4731         26
  50.4916         32
  50.5102         25
  50.5288         20
  50.5474         38
  50.5659         35
  50.5845         37
  50.6031         34
  50.6217         20
  50.6402         30
  50.6588         28
  50.6774         24
  50.6960         28
  50.7146         28
  50.7331         33
  50.7517         28
  50.7703         22
  50.7889         22
  50.8074         24
  50.8260         33
  50.8446         28
  50.8632         37
  50.8817         29
  50.9003         20
  50.9189         28
  50.9375         43
  50.9560         26
  50.9746         30
  50.9932         19
  51.0118         24
  51.0303         29
  51.0489         29
  51.0675         28
  51.0861         31
  51.1046         26
  51.1232         30
  51.1418         24
  51.1604         26
  51.1789         30
  51.1975         35
  51.2161         28
  51.2347         38
  51.2532         32
  51.2718         34
  51.2904         34
  51.3090         29
  51.3275         33
  51.3461         26
  51.3647         23
  51.3833         25
  51.4018         39
  51.4204         34
  51.4390         30
  51.4576         36
  51.4762         26
  51.4947         43
  51.5133         40
  51.5319         27
  51.5505         38
  51.5690         31
  51.5876         30
  51.6062         28
  51.6248         20
  51.6433         24
  51.6619         18
  51.6805         29
  51.6991         28
  51.7176         24
  51.7362         30
  51.7548         15
  51.7734         28
  51.7919         39
  51.8105         31
  51.8291         27
  51.8477         32
  51.8662         40
  51.8848         29
  51.9034         36
  51.9220         26
  51.9405         25
  51.9591         26
  51.9777         26
  51.9963         37
  52.0148         36
  52.0334         29
  52.0520         23
  52.0706         30
  52.0891         28
  52.1077         32
  52.1263         25
  52.1449         20
  52.1634         28
  52.1820         32
  52.2006         35
  52.2192         34
  52.2378         27
  52.2563         24
  52.2749         25
  52.2935         31
  52.3121         22
  52.3306         27
  52.3492         35
  52.3678         34
  52.3864         29
  52.4049         29
  52.4235         29
  52.4421         25
  52.4607         28
  52.4792         30
  52.4978         27
  52.5164         26
  52.5350         28
  52.5535         22
  52.5721         33
  52.5907         37
  52.6093         35
  52.6278         27
  52.6464         31
  52.6650         36
  52.6836         33
  52.7021         30
  52.7207         22
  52.7393         34
  52.7579         34
  52.7764         19
  52.7950         29
  52.8136         18
  52.8322         19
  52.8507         31
  52.8693         28
  52.8879         20
  52.9065         28
  52.9250         34
  52.9436         23
  52.9622         20
  52.9808         33
  52.9994         42
  53.0179         28
  53.0365         31
  53.0551         28
  53.0737         31
  53.0922         30
  53.1108         26
  53.1294         37
  53.1480         35
  53.1665         38
  53.1851         26
  53.2037         29
  53.2223         28
  53.2408         22
  53.2594         27
  53.2780         25
  53.2966         19
  53.3151         29
  53.3337         38
  53.3523         30
  53.3709         25
  53.3894         22
  53.4080         29
  53.4266         33
  53.4452         22
  53.4637         32
  53.4823         30
  53.5009         27
  53.5195         26
  53.5380         24
  53.5566         17
  53.5752         31
  53.5938         33
  53.6123         32
  53.6309         26
  53.6495         21
  53.6681         23
  53.6866         29
  53.7052         29
  53.7238         37
  53.7424         25
  53.7610         38
  53.7795         28
  53.7981         28
  53.8167         25
  53.8353         21
  53.8538         23
  53.8724         33
  53.8910         30
  53.9096         34
  53.9281         28
  53.9467         40
  53.9653         30
  53.9839         30
  54.0024         52
  54.0210         43
  54.0396         22
  54.0582         29
  54.0767         31
  54.0953         21
  54.1139         42
  54.1325         33
  54.1510         42
  54.1696         30
  54.1882         27
  54.2068         33
  54.2253         40
  54.2439         27
  54.2625         38
  54.2811         18
  54.2996         20
  54.3182         27
  54.3368         26
  54.3554         24
  54.3739         31
  54.3925         25
  54.4111         24
  54.4297         28
  54.4482         23
  54.4668         26
  54.4854         23
  54.5040         24
  54.5225         29
  54.5411         24
  54.5597         40
  54.5783         22
  54.5969         28
  54.6154         29
  54.6340         27
  54.6526         39
  54.6712         21
  54.6897         32
  54.7083         22
  54.7269         25
  54.7455         23
  54.7640         33
  54.7826         25
  54.8012         33
  54.8198         18
  54.8383         27
  54.8569         28
  54.8755         25
  54.8941         22
  54.9126         27
  54.9312         25
  54.9498         34
  54.9684         27
  54.9869         32
  55.0055         24
  55.0241         33
  55.0427         32
  55.0612         29
  55.0798         23
  55.0984         22
  55.1170         33
  55.1355         24
  55.1541         23
  55.1727         22
  55.1913         27
  55.2098         25
  55.2284         25
  55.2470         23
  55.2656         27
  55.2841         28
  55.3027         29
  55.3213         25
  55.3399         24
  55.3585         22
  55.3770         28
  55.3956         34
  55.4142         37
  55.4328         20
  55.4513         23
  55.4699         30
  55.4885         26
  55.5071         23
  55.5256         24
  55.5442         31
  55.5628         21
  55.5814         31
  55.5999         33
  55.6185         21
  55.6371         21
  55.6557         31
  55.6742         32
  55.6928         30
  55.7114         26
  55.7300         25
  55.7485         28
  55.7671         29
  55.7857         18
  55.8043         23
  55.8228         25
  55.8414         26
  55.8600         32
  55.8786         28
  55.8971         25
  55.9157         29
  55.9343         22
  55.9529         19
  55.9714         36
  55.9900         22
  56.0086         21
  56.0272         29
  56.0457         33
  56.0643         31
  56.0829         29
  56.1015         41
  56.1201         30
  56.1386         28
  56.1572         28
  56.1758         29
  56.1944         26
  56.2129         23
  56.2315         22
  56.2501         35
  56.2687         42
  56.2872         28
  56.3058         36
  56.3244         25
  56.3430         38
  56.3615         29
  56.3801         20
  56.3987         39
  56.4173         33
  56.4358         33
  56.4544         34
  56.4730         27
  56.4916         26
  56.5101         32
  56.5287         25
  56.5473         33
  56.5659         32
  56.5844         26
  56.6030         21
  56.6216         29
  56.6402         27
  56.6587         26
  56.6773         27
  56.6959         35
  56.7145         25
  56.7330         22
  56.7516         21
  56.7702         34
  56.7888         30
  56.8073         29
  56.8259         30
  56.8445         27
  56.8631         23
  56.8817         29
  56.9002         27
  56.9188         30
  56.9374         24
  56.9560         30
  56.9745         34
  56.9931         25
  57.0117         22
  57.0303         32
  57.0488         26
  57.0674         27
  57.0860         26
  57.1046         23
  57.1231         20
  57.1417         32
  57.1603         26
  57.1789         28
  57.1974         33
  57.2160         28
  57.2346         31
  57.2532         23
  57.2717         34
  57.2903         17
  57.3089         34
  57.3275         34
  57.3460         28
  57.3646         30
  57.3832         19
  57.4018         36
  57.4203         30
  57.4389         25
  57.4575         25
  57.4761         35
  57.4946         19
  57.5132         28
  57.5318         21
  57.5504         18
  57.5689         26
  57.5875         25
  57.6061         35
  57.6247         36
  57.6433         28
  57.6618         27
  57.6804         24
  57.6990         30
  57.7176         21
  57.7361         30
  57.7547         24
  57.7733         28
  57.7919         29
  57.8104         28
  57.8290         25
  57.8476         32
  57.8662         37
  57.8847         35
  57.9033         34
  57.9219         26
  57.9405         25
  57.9590         33
  57.9776         22
  57.9962         32
  58.0148         28
  58.0333         25
  58.0519         26
  58.0705         27
  58.0891         29
  58.1076         27
  58.1262         28
  58.1448         23
  58.1634         21
  58.1819         32
  58.2005         25
  58.2191         23
  58.2377         41
  58.2562         19
  58.2748         24
  58.2934         23
  58.3120         23
  58.3305         22
  58.3491         26
  58.3677         35
  58.3863         25
  58.4049         23
  58.4234         24
  58.4420         24
  58.4606         29
  58.4792         24
  58.4977         25
  58.5163         29
  58.5349         22
  58.5535         29
  58.5720         31
  58.5906         28
  58.6092         26
  58.6278         30
  58.6463         32
  58.6649         37
  58.6835         23
  58.7021         35
  58.7206         23
  58.7392         26
  58.7578         30
  58.7764         20
  58.7949         27
  58.8135         28
  58.8321         27
  58.8507         20
  58.8692         23
  58.8878         32
  58.9064         22
  58.9250         19
  58.9435         28
  58.9621         25
  58.9807         30
  58.9993         33
  59.0178         28
  59.0364         30
  59.0550         21
  59.0736         36
  59.0921         19
  59.1107         24
  59.1293         17
  59.1479         22
  59.1664         18
  59.1850         18
  59.2036         22
  59.2222         26
  59.2408         31
  59.2593         24
  59.2779         35
  59.2965         24
  59.3151         30
  59.3336         24
  59.3522         27
  59.3708         16
  59.3894         39
  59.4079         33
  59.4265         25
  59.4451         22
  59.4637         30
  59.4822         32
  59.5008         27
  59.5194         24
  59.5380         24
  59.5565         37
  59.5751         30
  59.5937         29
  59.6123         25
  59.6308         36
  59.6494         20
  59.6680         31
  59.6866         30
  59.7051         29
  59.7237         33
  59.7423         25
  59.7609         26
  59.7794         26
  59.7980         25
  59.8166         20
  59.8352         27
  59.8537         31
  59.8723         22
  59.8909         29
  59.9095         32
  59.9280         35
  59.9466         26
  59.9652         32
  59.9838         33
  60.0024         33
