; (content of file Y:\Sam\Apurva-07-20-2022\puck4\ML_20220718_20_SJD_0_LaB6-2min.raw)
_FILEVERSION = 3
_SAMPLE = ML_20220718_20_SJD_0_LaB6-2min
_+SAMPLE = 
_SITE = USA
_USER = Administrator
_GONIOMETER_CODE = 20
; Goniometer : D8 theta/2theta, stage : Unknown
_ATTACHMENTS_CODE = 0
_GONIOMETER_RADIUS = 200.5
_FIXED_DIVSLIT = 0.6
_FIXED_SAMPLESLIT = 0
_SOLLER_SLITS = 2
_FIXED_DETSLIT = 9.55
_MONOCHROMATOR = 0
; Incident beam monochromator : None
_SOLLER_SLITS_2 = N
_THIN_FILM = N
_BETA_FILTER = Y
_FIXED_ANTISLIT = 5.89
_ANALYZER_CODE = 0
; Received beam analyzer : None
_DATEMEASURED = "26-Jul-2022 09:37:31"
_WL_UNIT = A
_WL1 = 1.5406
_WL2 = 1.54439
_WL3 = 1.39222
_WLRATIO = 0.5
_ANODE = Cu
_V4_INF_CREATOR = XRDWizard
_V4_INF_CREATOR_VERSION = V2.9.0.22
_V4_INF_WIZARD_VERSION = V2.9.0.22
_V4_INF_WIZARD_ADDINS = V2.9.0.22
_V4_INF_WIZARD_DOCTYPE = XRD
_V4_INF_OSUSER = McQueenLab
_V4_INF_USER = Administrator
_V4_INF_SITE = USA
_V4_INF_SAMPLEID = ML_20220718_20_SJD_0_LaB6-2min

; Data for range 1
_DRIVE = COUPLED
_STEPTIME = 5.64
_STEPSIZE = 0.0185756
_STEPMODE = C
_START = 5
_THETA = 2.5
_2THETA = 5
_KHI = 0
_PHI = 0
_X = 0
_Y = 0
_Z = 0
_DETECTOR = 5
; Detector type : Unknown
_DETECTORSLIT = unkn
_AUX1 = 0
_AUX2 = 0
_AUX3 = 0
_TIMESTARTED = 15
_TEMP_RATE = -1
_TEMP_DELAY = -1
_KV = 40
_MA = 40
_RANGE_WL = 1.5406
_3DPLANE = 0
_V4_ADDITIONALDETECTOR = 257
_V4_PSD2THETA = 3.4139
_V4_PSDCHANNEL1 = 0
_V4_PSDAPERTURE = 12.68
_V4_PSDTYPE = 5
_V4_PSDFIXED = 0
_V4_COUNTERS_MASK = 4096
_V4_DRIVES_MASK = 0
_V4_ENCODERS_MASK = 0
_2THETACOUNTS = 1
; 2THETA  PSD
   5.0000        124
   5.0186        127
   5.0372        141
   5.0557        129
   5.0743        128
   5.0929        134
   5.1115        124
   5.1300        118
   5.1486        108
   5.1672        125
   5.1858        119
   5.2043        118
   5.2229        127
   5.2415        128
   5.2601        136
   5.2786        114
   5.2972        123
   5.3158        126
   5.3344        121
   5.3529        110
   5.3715        107
   5.3901        135
   5.4087        116
   5.4272        107
   5.4458        129
   5.4644        108
   5.4830        107
   5.5015        124
   5.5201        123
   5.5387         97
   5.5573         94
   5.5758        118
   5.5944        111
   5.6130         95
   5.6316        100
   5.6501        115
   5.6687        104
   5.6873        103
   5.7059        112
   5.7244        115
   5.7430         92
   5.7616        126
   5.7802        116
   5.7988        104
   5.8173         99
   5.8359        106
   5.8545        114
   5.8731        100
   5.8916        110
   5.9102        107
   5.9288         84
   5.9474         96
   5.9659         82
   5.9845        108
   6.0031         83
   6.0217        102
   6.0402         97
   6.0588         98
   6.0774         84
   6.0960        112
   6.1145         90
   6.1331         84
   6.1517         91
   6.1703         98
   6.1888         91
   6.2074         95
   6.2260        100
   6.2446         88
   6.2631         75
   6.2817        102
   6.3003         95
   6.3189         91
   6.3374        101
   6.3560         82
   6.3746         92
   6.3932         79
   6.4117        101
   6.4303         98
   6.4489         97
   6.4675         76
   6.4860        103
   6.5046         88
   6.5232         85
   6.5418         84
   6.5604         92
   6.5789         75
   6.5975         90
   6.6161        109
   6.6347         93
   6.6532         90
   6.6718         78
   6.6904         91
   6.7090         84
   6.7275         77
   6.7461         96
   6.7647         97
   6.7833         91
   6.8018         83
   6.8204        105
   6.8390         90
   6.8576         73
   6.8761         97
   6.8947        104
   6.9133         88
   6.9319         82
   6.9504         70
   6.9690         74
   6.9876         81
   7.0062         75
   7.0247         81
   7.0433         93
   7.0619         75
   7.0805         80
   7.0990         85
   7.1176         79
   7.1362         75
   7.1548         98
   7.1733         90
   7.1919         72
   7.2105         77
   7.2291         81
   7.2476         65
   7.2662         81
   7.2848         84
   7.3034         71
   7.3220         74
   7.3405         79
   7.3591         69
   7.3777         71
   7.3963         58
   7.4148         92
   7.4334         76
   7.4520         79
   7.4706         82
   7.4891         90
   7.5077         67
   7.5263         87
   7.5449         83
   7.5634         80
   7.5820         81
   7.6006         70
   7.6192         91
   7.6377         93
   7.6563         77
   7.6749         79
   7.6935         95
   7.7120         83
   7.7306         82
   7.7492         94
   7.7678         87
   7.7863         80
   7.8049        107
   7.8235         82
   7.8421         90
   7.8606         82
   7.8792         90
   7.8978         73
   7.9164         87
   7.9349         77
   7.9535         91
   7.9721        101
   7.9907        103
   8.0092         79
   8.0278         96
   8.0464         91
   8.0650         94
   8.0835         91
   8.1021         80
   8.1207        101
   8.1393        108
   8.1579         95
   8.1764         90
   8.1950         94
   8.2136        106
   8.2322         95
   8.2507         81
   8.2693        102
   8.2879         87
   8.3065         86
   8.3250         92
   8.3436        113
   8.3622         91
   8.3808        101
   8.3993         85
   8.4179         97
   8.4365        102
   8.4551        110
   8.4736        106
   8.4922         99
   8.5108        114
   8.5294        103
   8.5479        104
   8.5665        100
   8.5851         93
   8.6037        108
   8.6222        101
   8.6408        105
   8.6594         83
   8.6780        116
   8.6965         85
   8.7151         82
   8.7337         94
   8.7523         88
   8.7708        112
   8.7894        107
   8.8080        103
   8.8266        101
   8.8451        101
   8.8637        108
   8.8823         95
   8.9009        115
   8.9195        109
   8.9380        107
   8.9566         90
   8.9752        102
   8.9938        110
   9.0123        109
   9.0309        105
   9.0495        113
   9.0681        109
   9.0866        117
   9.1052        100
   9.1238        100
   9.1424        111
   9.1609         94
   9.1795        117
   9.1981        115
   9.2167        115
   9.2352         83
   9.2538        113
   9.2724        113
   9.2910        105
   9.3095        109
   9.3281         97
   9.3467        114
   9.3653         97
   9.3838        101
   9.4024        118
   9.4210        108
   9.4396        103
   9.4581        102
   9.4767        107
   9.4953         98
   9.5139        110
   9.5324        124
   9.5510        112
   9.5696        119
   9.5882        121
   9.6067        103
   9.6253        109
   9.6439        131
   9.6625        129
   9.6811        107
   9.6996         95
   9.7182        116
   9.7368        116
   9.7554        134
   9.7739        128
   9.7925        107
   9.8111        126
   9.8297        122
   9.8482        119
   9.8668        119
   9.8854        106
   9.9040        135
   9.9225        130
   9.9411        103
   9.9597        117
   9.9783        119
   9.9968        102
  10.0154        116
  10.0340        141
  10.0526        113
  10.0711        135
  10.0897        109
  10.1083        126
  10.1269        123
  10.1454        140
  10.1640        110
  10.1826        123
  10.2012        123
  10.2197        109
  10.2383        118
  10.2569        132
  10.2755        118
  10.2940        127
  10.3126        134
  10.3312        109
  10.3498        117
  10.3683        138
  10.3869         95
  10.4055        142
  10.4241        131
  10.4427        123
  10.4612        131
  10.4798        110
  10.4984        120
  10.5170        126
  10.5355        150
  10.5541        124
  10.5727        106
  10.5913        121
  10.6098        127
  10.6284        134
  10.6470        127
  10.6656        119
  10.6841        129
  10.7027        112
  10.7213        123
  10.7399        117
  10.7584        106
  10.7770        119
  10.7956        132
  10.8142        129
  10.8327        103
  10.8513        136
  10.8699        112
  10.8885        127
  10.9070        116
  10.9256        132
  10.9442        118
  10.9628        121
  10.9813        118
  10.9999        120
  11.0185        122
  11.0371        117
  11.0556        120
  11.0742        113
  11.0928        117
  11.1114        109
  11.1299        142
  11.1485        114
  11.1671        113
  11.1857        113
  11.2043        110
  11.2228        130
  11.2414        129
  11.2600        127
  11.2786        118
  11.2971        114
  11.3157        126
  11.3343        112
  11.3529        111
  11.3714        116
  11.3900        125
  11.4086        110
  11.4272        102
  11.4457        121
  11.4643        128
  11.4829        119
  11.5015        100
  11.5200        106
  11.5386        134
  11.5572        123
  11.5758        117
  11.5943        118
  11.6129        109
  11.6315        115
  11.6501        120
  11.6686        118
  11.6872         99
  11.7058        102
  11.7244        113
  11.7429        118
  11.7615        124
  11.7801        135
  11.7987        144
  11.8172        108
  11.8358        123
  11.8544        116
  11.8730        106
  11.8915        133
  11.9101        129
  11.9287        122
  11.9473         95
  11.9659        104
  11.9844        122
  12.0030        105
  12.0216        134
  12.0402         99
  12.0587        105
  12.0773        126
  12.0959        111
  12.1145        128
  12.1330        103
  12.1516        103
  12.1702        113
  12.1888        107
  12.2073        118
  12.2259        105
  12.2445        111
  12.2631         90
  12.2816        125
  12.3002        100
  12.3188        107
  12.3374        116
  12.3559        102
  12.3745        108
  12.3931        126
  12.4117        106
  12.4302        114
  12.4488        119
  12.4674         93
  12.4860        115
  12.5045        107
  12.5231        101
  12.5417        109
  12.5603        110
  12.5788        110
  12.5974        104
  12.6160        100
  12.6346        114
  12.6531        123
  12.6717        101
  12.6903        103
  12.7089         85
  12.7274         99
  12.7460        104
  12.7646        100
  12.7832        104
  12.8018        127
  12.8203        112
  12.8389        111
  12.8575         87
  12.8761        119
  12.8946        100
  12.9132         97
  12.9318        119
  12.9504         85
  12.9689        111
  12.9875        108
  13.0061         99
  13.0247         94
  13.0432        106
  13.0618         88
  13.0804        109
  13.0990         95
  13.1175         95
  13.1361        109
  13.1547         97
  13.1733        115
  13.1918        101
  13.2104         96
  13.2290         88
  13.2476         93
  13.2661         93
  13.2847         88
  13.3033         85
  13.3219        110
  13.3404         91
  13.3590        107
  13.3776        110
  13.3962        102
  13.4147         85
  13.4333        115
  13.4519         88
  13.4705         91
  13.4890         84
  13.5076        104
  13.5262        105
  13.5448         97
  13.5634         89
  13.5819        108
  13.6005        103
  13.6191         96
  13.6377         96
  13.6562         92
  13.6748        100
  13.6934         96
  13.7120        106
  13.7305         94
  13.7491         83
  13.7677         78
  13.7863         94
  13.8048        103
  13.8234         98
  13.8420        101
  13.8606         81
  13.8791        102
  13.8977         96
  13.9163         83
  13.9349        103
  13.9534         94
  13.9720        108
  13.9906         92
  14.0092         99
  14.0277         94
  14.0463         95
  14.0649         83
  14.0835         95
  14.1020         92
  14.1206        112
  14.1392         87
  14.1578         95
  14.1763         92
  14.1949         73
  14.2135         85
  14.2321         93
  14.2506         98
  14.2692         92
  14.2878         75
  14.3064         74
  14.3250         88
  14.3435         89
  14.3621         77
  14.3807         92
  14.3993         94
  14.4178         81
  14.4364         73
  14.4550         86
  14.4736         81
  14.4921         93
  14.5107         89
  14.5293         80
  14.5479         60
  14.5664        101
  14.5850         88
  14.6036         85
  14.6222         83
  14.6407         91
  14.6593         96
  14.6779         91
  14.6965         75
  14.7150         97
  14.7336         98
  14.7522         85
  14.7708         94
  14.7893        116
  14.8079         91
  14.8265         78
  14.8451         86
  14.8636         86
  14.8822         75
  14.9008         84
  14.9194        102
  14.9379         79
  14.9565        101
  14.9751         88
  14.9937         98
  15.0122         79
  15.0308         72
  15.0494         72
  15.0680         91
  15.0866         79
  15.1051         88
  15.1237         82
  15.1423         73
  15.1609         79
  15.1794         89
  15.1980         75
  15.2166         92
  15.2352         82
  15.2537         87
  15.2723         70
  15.2909         70
  15.3095         94
  15.3280         82
  15.3466         84
  15.3652         60
  15.3838         83
  15.4023         84
  15.4209         83
  15.4395         79
  15.4581         78
  15.4766         81
  15.4952         84
  15.5138         88
  15.5324         79
  15.5509         78
  15.5695         84
  15.5881         96
  15.6067         62
  15.6252         80
  15.6438         67
  15.6624         91
  15.6810         77
  15.6995         98
  15.7181         81
  15.7367         81
  15.7553         76
  15.7738         66
  15.7924         79
  15.8110         77
  15.8296         97
  15.8482         88
  15.8667         72
  15.8853         80
  15.9039         89
  15.9225         76
  15.9410         70
  15.9596         69
  15.9782         81
  15.9968         82
  16.0153         81
  16.0339         74
  16.0525         86
  16.0711         87
  16.0896         68
  16.1082         85
  16.1268         85
  16.1454         75
  16.1639         78
  16.1825         76
  16.2011         94
  16.2197         86
  16.2382         93
  16.2568         86
  16.2754         72
  16.2940         79
  16.3125         94
  16.3311         83
  16.3497         84
  16.3683         79
  16.3868         80
  16.4054         71
  16.4240         80
  16.4426         82
  16.4611         83
  16.4797         70
  16.4983         63
  16.5169         89
  16.5354         70
  16.5540         98
  16.5726         77
  16.5912         87
  16.6097         91
  16.6283         79
  16.6469         83
  16.6655         82
  16.6841         69
  16.7026         80
  16.7212         86
  16.7398         87
  16.7584         86
  16.7769         77
  16.7955         88
  16.8141         82
  16.8327         72
  16.8512         76
  16.8698         78
  16.8884         93
  16.9070         86
  16.9255         68
  16.9441         94
  16.9627         84
  16.9813         78
  16.9998         85
  17.0184         92
  17.0370         69
  17.0556         98
  17.0741         94
  17.0927         89
  17.1113         85
  17.1299         90
  17.1484         75
  17.1670         76
  17.1856         78
  17.2042         81
  17.2227         76
  17.2413         94
  17.2599         71
  17.2785         78
  17.2970         71
  17.3156         73
  17.3342         82
  17.3528         76
  17.3713         71
  17.3899         81
  17.4085         85
  17.4271         94
  17.4457         78
  17.4642         73
  17.4828         72
  17.5014         62
  17.5200         96
  17.5385         61
  17.5571         86
  17.5757         79
  17.5943        101
  17.6128         85
  17.6314         87
  17.6500        104
  17.6686         85
  17.6871         83
  17.7057         94
  17.7243         82
  17.7429         77
  17.7614         75
  17.7800         74
  17.7986         85
  17.8172         73
  17.8357         87
  17.8543         88
  17.8729         69
  17.8915         75
  17.9100         93
  17.9286         74
  17.9472         83
  17.9658         77
  17.9843         95
  18.0029         80
  18.0215         70
  18.0401         63
  18.0586         88
  18.0772         76
  18.0958         95
  18.1144         84
  18.1329         86
  18.1515         79
  18.1701         76
  18.1887         67
  18.2073         95
  18.2258         66
  18.2444         88
  18.2630         78
  18.2816         84
  18.3001         76
  18.3187         80
  18.3373         82
  18.3559        103
  18.3744         92
  18.3930         84
  18.4116         66
  18.4302         83
  18.4487         72
  18.4673         89
  18.4859         83
  18.5045         77
  18.5230         80
  18.5416         94
  18.5602         79
  18.5788         87
  18.5973         76
  18.6159         85
  18.6345         75
  18.6531         80
  18.6716         85
  18.6902         89
  18.7088         88
  18.7274         91
  18.7459         77
  18.7645         89
  18.7831         69
  18.8017         78
  18.8202         99
  18.8388         74
  18.8574         79
  18.8760         91
  18.8945         72
  18.9131         96
  18.9317         88
  18.9503         79
  18.9689         69
  18.9874         71
  19.0060         81
  19.0246         76
  19.0432         80
  19.0617         68
  19.0803         69
  19.0989         70
  19.1175         83
  19.1360         98
  19.1546         91
  19.1732         80
  19.1918         92
  19.2103         86
  19.2289         87
  19.2475         68
  19.2661         75
  19.2846         75
  19.3032         94
  19.3218         88
  19.3404        101
  19.3589         80
  19.3775         95
  19.3961         74
  19.4147         93
  19.4332         71
  19.4518         89
  19.4704         80
  19.4890         79
  19.5075         91
  19.5261         98
  19.5447         81
  19.5633         80
  19.5818         90
  19.6004        112
  19.6190         70
  19.6376        102
  19.6561         70
  19.6747         71
  19.6933         79
  19.7119        103
  19.7305         94
  19.7490         84
  19.7676         99
  19.7862        100
  19.8048         84
  19.8233         92
  19.8419         92
  19.8605         81
  19.8791         80
  19.8976        114
  19.9162         78
  19.9348         82
  19.9534         77
  19.9719         92
  19.9905         87
  20.0091        115
  20.0277         85
  20.0462        113
  20.0648         88
  20.0834         93
  20.1020         95
  20.1205         94
  20.1391         98
  20.1577         93
  20.1763         78
  20.1948         98
  20.2134         66
  20.2320         96
  20.2506         88
  20.2691         88
  20.2877         93
  20.3063         82
  20.3249         84
  20.3434         89
  20.3620         99
  20.3806         86
  20.3992         99
  20.4177         99
  20.4363        106
  20.4549         99
  20.4735         98
  20.4921         88
  20.5106        105
  20.5292        102
  20.5478         88
  20.5664         91
  20.5849         86
  20.6035         90
  20.6221         92
  20.6407         89
  20.6592         92
  20.6778        108
  20.6964         99
  20.7150         83
  20.7335         98
  20.7521         87
  20.7707         93
  20.7893        108
  20.8078         77
  20.8264         85
  20.8450        107
  20.8636         98
  20.8821        100
  20.9007        100
  20.9193         80
  20.9379        107
  20.9564         94
  20.9750        105
  20.9936         83
  21.0122         90
  21.0307        105
  21.0493        122
  21.0679        103
  21.0865        103
  21.1050         96
  21.1236        104
  21.1422        104
  21.1608         98
  21.1793        133
  21.1979        158
  21.2165        154
  21.2351        180
  21.2537        183
  21.2722        149
  21.2908        132
  21.3094        141
  21.3280        174
  21.3465        241
  21.3651        271
  21.3837        223
  21.4023        181
  21.4208        172
  21.4394        151
  21.4580        105
  21.4766        111
  21.4951        105
  21.5137        107
  21.5323        106
  21.5509         96
  21.5694        120
  21.5880        103
  21.6066        116
  21.6252         99
  21.6437         98
  21.6623         93
  21.6809         89
  21.6995         99
  21.7180        114
  21.7366         96
  21.7552         83
  21.7738         81
  21.7923         93
  21.8109         95
  21.8295         88
  21.8481        105
  21.8666        103
  21.8852         97
  21.9038        123
  21.9224        114
  21.9409        102
  21.9595        110
  21.9781        101
  21.9967         83
  22.0152         93
  22.0338         94
  22.0524         92
  22.0710         91
  22.0896         80
  22.1081         97
  22.1267         83
  22.1453         92
  22.1639         83
  22.1824         96
  22.2010         86
  22.2196         82
  22.2382         76
  22.2567         99
  22.2753         93
  22.2939         94
  22.3125         89
  22.3310        123
  22.3496         84
  22.3682        103
  22.3868         97
  22.4053        100
  22.4239         90
  22.4425         96
  22.4611        113
  22.4796        102
  22.4982        100
  22.5168        102
  22.5354         95
  22.5539        102
  22.5725        101
  22.5911        110
  22.6097        109
  22.6282        115
  22.6468         94
  22.6654         83
  22.6840        109
  22.7025         91
  22.7211         94
  22.7397         80
  22.7583         99
  22.7768        106
  22.7954        101
  22.8140        103
  22.8326         85
  22.8512         93
  22.8697         94
  22.8883        117
  22.9069        130
  22.9255         99
  22.9440        101
  22.9626        125
  22.9812        120
  22.9998         98
  23.0183         89
  23.0369         87
  23.0555        104
  23.0741        108
  23.0926         92
  23.1112         92
  23.1298         87
  23.1484         94
  23.1669        102
  23.1855        111
  23.2041        119
  23.2227         91
  23.2412         95
  23.2598         94
  23.2784         97
  23.2970         86
  23.3155         93
  23.3341        102
  23.3527        116
  23.3713         96
  23.3898         93
  23.4084        105
  23.4270        116
  23.4456         94
  23.4641         89
  23.4827         98
  23.5013         82
  23.5199        102
  23.5384         83
  23.5570         93
  23.5756         91
  23.5942         99
  23.6128        111
  23.6313         82
  23.6499        111
  23.6685        118
  23.6871        109
  23.7056        112
  23.7242        103
  23.7428         98
  23.7614        124
  23.7799        123
  23.7985        101
  23.8171         90
  23.8357         99
  23.8542        104
  23.8728         99
  23.8914         95
  23.9100        109
  23.9285         89
  23.9471         94
  23.9657        103
  23.9843         85
  24.0028        104
  24.0214        107
  24.0400        102
  24.0586        101
  24.0771        120
  24.0957        103
  24.1143        102
  24.1329        123
  24.1514         93
  24.1700        104
  24.1886         86
  24.2072         97
  24.2257        102
  24.2443        110
  24.2629        107
  24.2815        108
  24.3000        113
  24.3186         94
  24.3372        114
  24.3558        104
  24.3744         96
  24.3929        106
  24.4115        101
  24.4301        125
  24.4487        104
  24.4672        103
  24.4858         97
  24.5044        107
  24.5230        105
  24.5415         95
  24.5601         94
  24.5787        118
  24.5973         88
  24.6158        102
  24.6344         90
  24.6530         92
  24.6716        101
  24.6901         86
  24.7087        109
  24.7273         91
  24.7459        104
  24.7644         98
  24.7830        111
  24.8016        100
  24.8202         82
  24.8387         90
  24.8573         96
  24.8759        108
  24.8945        106
  24.9130         90
  24.9316         98
  24.9502        106
  24.9688        103
  24.9873         84
  25.0059         93
  25.0245         94
  25.0431        102
  25.0616         95
  25.0802        109
  25.0988         89
  25.1174        102
  25.1360         81
  25.1545         91
  25.1731        102
  25.1917         92
  25.2103         88
  25.2288         98
  25.2474        105
  25.2660         94
  25.2846        106
  25.3031         84
  25.3217        102
  25.3403        111
  25.3589        100
  25.3774        103
  25.3960        100
  25.4146         93
  25.4332         90
  25.4517        104
  25.4703         87
  25.4889         95
  25.5075         98
  25.5260         99
  25.5446         91
  25.5632        100
  25.5818         90
  25.6003         95
  25.6189         91
  25.6375         95
  25.6561         71
  25.6746        100
  25.6932        104
  25.7118         98
  25.7304         99
  25.7489         87
  25.7675         91
  25.7861        102
  25.8047        110
  25.8232         88
  25.8418         81
  25.8604         98
  25.8790         90
  25.8976         95
  25.9161         96
  25.9347         98
  25.9533        105
  25.9719         94
  25.9904         99
  26.0090        120
  26.0276         96
  26.0462         90
  26.0647         85
  26.0833        100
  26.1019         86
  26.1205         83
  26.1390         93
  26.1576         96
  26.1762        105
  26.1948         91
  26.2133        100
  26.2319        110
  26.2505         83
  26.2691        100
  26.2876         80
  26.3062         85
  26.3248         90
  26.3434         98
  26.3619         91
  26.3805         85
  26.3991        100
  26.4177        107
  26.4362         80
  26.4548         95
  26.4734        108
  26.4920         90
  26.5105         91
  26.5291         94
  26.5477         94
  26.5663         92
  26.5848         74
  26.6034         91
  26.6220         97
  26.6406         87
  26.6591         82
  26.6777         92
  26.6963        107
  26.7149         76
  26.7335         87
  26.7520         93
  26.7706        105
  26.7892        106
  26.8078        106
  26.8263         98
  26.8449         75
  26.8635         95
  26.8821        103
  26.9006         99
  26.9192         94
  26.9378         96
  26.9564        100
  26.9749         96
  26.9935         71
  27.0121        102
  27.0307         97
  27.0492         92
  27.0678        108
  27.0864         86
  27.1050         99
  27.1235         96
  27.1421         98
  27.1607         94
  27.1793        116
  27.1978        109
  27.2164        124
  27.2350        119
  27.2536        112
  27.2721        112
  27.2907        103
  27.3093        107
  27.3279         92
  27.3464         97
  27.3650         86
  27.3836        102
  27.4022         92
  27.4207         99
  27.4393        100
  27.4579        108
  27.4765        107
  27.4951         82
  27.5136         84
  27.5322         85
  27.5508         88
  27.5694         86
  27.5879         78
  27.6065         90
  27.6251         67
  27.6437         68
  27.6622         97
  27.6808         97
  27.6994         90
  27.7180        108
  27.7365         87
  27.7551         87
  27.7737         99
  27.7923        105
  27.8108         93
  27.8294         87
  27.8480         83
  27.8666         96
  27.8851         97
  27.9037         94
  27.9223         94
  27.9409         92
  27.9594         80
  27.9780         85
  27.9966         83
  28.0152        109
  28.0337         78
  28.0523         89
  28.0709        100
  28.0895         83
  28.1080         98
  28.1266         72
  28.1452         77
  28.1638         86
  28.1823         90
  28.2009         97
  28.2195         86
  28.2381         69
  28.2567         89
  28.2752         67
  28.2938         87
  28.3124         75
  28.3310         76
  28.3495         62
  28.3681         96
  28.3867         86
  28.4053         77
  28.4238         78
  28.4424         69
  28.4610         81
  28.4796         96
  28.4981         69
  28.5167        103
  28.5353         71
  28.5539         82
  28.5724         88
  28.5910         91
  28.6096         87
  28.6282         85
  28.6467         90
  28.6653         95
  28.6839         70
  28.7025         85
  28.7210         70
  28.7396         66
  28.7582         85
  28.7768         91
  28.7953         82
  28.8139         72
  28.8325         93
  28.8511         76
  28.8696         72
  28.8882         86
  28.9068         89
  28.9254         82
  28.9439        101
  28.9625         90
  28.9811         73
  28.9997         82
  29.0183         88
  29.0368         83
  29.0554         84
  29.0740         91
  29.0926         70
  29.1111         76
  29.1297         99
  29.1483         71
  29.1669         95
  29.1854         76
  29.2040         76
  29.2226         89
  29.2412         70
  29.2597         73
  29.2783         75
  29.2969         81
  29.3155         73
  29.3340         79
  29.3526         76
  29.3712         76
  29.3898         75
  29.4083         92
  29.4269         76
  29.4455         89
  29.4641         69
  29.4826         72
  29.5012         77
  29.5198         76
  29.5384         61
  29.5569         87
  29.5755         74
  29.5941         83
  29.6127         88
  29.6312         75
  29.6498         76
  29.6684         76
  29.6870         83
  29.7055         84
  29.7241         91
  29.7427         72
  29.7613         72
  29.7799         71
  29.7984         81
  29.8170         87
  29.8356         66
  29.8542         82
  29.8727         82
  29.8913         84
  29.9099         77
  29.9285         78
  29.9470         61
  29.9656         78
  29.9842         64
  30.0028         81
  30.0213         84
  30.0399         73
  30.0585         97
  30.0771         77
  30.0956         82
  30.1142         63
  30.1328         70
  30.1514         72
  30.1699         91
  30.1885         95
  30.2071         78
  30.2257         79
  30.2442         80
  30.2628         94
  30.2814         82
  30.3000         87
  30.3185         95
  30.3371        110
  30.3557        126
  30.3743        165
  30.3928        155
  30.4114        128
  30.4300        107
  30.4486        115
  30.4671        165
  30.4857         95
  30.5043         76
  30.5229         78
  30.5415         76
  30.5600         65
  30.5786         73
  30.5972         90
  30.6158         77
  30.6343         79
  30.6529         78
  30.6715         74
  30.6901         61
  30.7086         68
  30.7272         68
  30.7458         73
  30.7644         79
  30.7829         74
  30.8015         57
  30.8201         77
  30.8387         79
  30.8572         67
  30.8758         72
  30.8944         66
  30.9130         80
  30.9315         99
  30.9501         55
  30.9687         70
  30.9873         67
  31.0058         61
  31.0244         67
  31.0430         70
  31.0616         80
  31.0801         74
  31.0987         86
  31.1173         80
  31.1359         73
  31.1544         86
  31.1730         58
  31.1916         69
  31.2102         68
  31.2287         82
  31.2473         75
  31.2659         77
  31.2845         73
  31.3030         73
  31.3216         58
  31.3402         78
  31.3588         71
  31.3774         60
  31.3959         84
  31.4145         60
  31.4331         75
  31.4517         81
  31.4702         69
  31.4888         65
  31.5074         63
  31.5260         64
  31.5445         68
  31.5631         69
  31.5817         61
  31.6003         66
  31.6188         73
  31.6374         72
  31.6560         63
  31.6746         50
  31.6931         63
  31.7117         68
  31.7303         69
  31.7489         63
  31.7674         49
  31.7860         74
  31.8046         65
  31.8232         71
  31.8417         65
  31.8603         60
  31.8789         77
  31.8975         76
  31.9160         72
  31.9346         75
  31.9532         69
  31.9718         83
  31.9903         70
  32.0089         68
  32.0275         69
  32.0461         70
  32.0646         83
  32.0832         78
  32.1018         74
  32.1204         66
  32.1390         56
  32.1575         72
  32.1761         59
  32.1947         47
  32.2133         53
  32.2318         60
  32.2504         66
  32.2690         70
  32.2876         56
  32.3061         72
  32.3247         74
  32.3433         62
  32.3619         71
  32.3804         75
  32.3990         76
  32.4176         67
  32.4362         61
  32.4547         70
  32.4733         84
  32.4919         69
  32.5105         70
  32.5290         67
  32.5476         70
  32.5662         55
  32.5848         81
  32.6033         58
  32.6219         81
  32.6405         55
  32.6591         68
  32.6776         66
  32.6962         52
  32.7148         61
  32.7334         69
  32.7519         53
  32.7705         66
  32.7891         67
  32.8077         67
  32.8262         61
  32.8448         73
  32.8634         60
  32.8820         57
  32.9006         65
  32.9191         52
  32.9377         71
  32.9563         72
  32.9749         61
  32.9934         65
  33.0120         62
  33.0306         63
  33.0492         58
  33.0677         68
  33.0863         67
  33.1049         63
  33.1235         53
  33.1420         44
  33.1606         62
  33.1792         50
  33.1978         59
  33.2163         73
  33.2349         65
  33.2535         59
  33.2721         67
  33.2906         47
  33.3092         59
  33.3278         65
  33.3464         57
  33.3649         61
  33.3835         70
  33.4021         62
  33.4207         52
  33.4392         50
  33.4578         60
  33.4764         62
  33.4950         69
  33.5135         55
  33.5321         57
  33.5507         56
  33.5693         53
  33.5878         71
  33.6064         42
  33.6250         48
  33.6436         67
  33.6622         55
  33.6807         57
  33.6993         67
  33.7179         47
  33.7365         75
  33.7550         64
  33.7736         59
  33.7922         76
  33.8108         56
  33.8293         62
  33.8479         66
  33.8665         48
  33.8851         54
  33.9036         59
  33.9222         49
  33.9408         42
  33.9594         63
  33.9779         49
  33.9965         58
  34.0151         43
  34.0337         51
  34.0522         46
  34.0708         45
  34.0894         73
  34.1080         55
  34.1265         55
  34.1451         64
  34.1637         54
  34.1823         57
  34.2008         60
  34.2194         67
  34.2380         65
  34.2566         53
  34.2751         45
  34.2937         58
  34.3123         48
  34.3309         58
  34.3494         52
  34.3680         53
  34.3866         55
  34.4052         47
  34.4238         65
  34.4423         43
  34.4609         58
  34.4795         55
  34.4981         53
  34.5166         57
  34.5352         65
  34.5538         55
  34.5724         58
  34.5909         64
  34.6095         65
  34.6281         60
  34.6467         65
  34.6652         57
  34.6838         69
  34.7024         55
  34.7210         64
  34.7395         65
  34.7581         62
  34.7767         78
  34.7953         89
  34.8138         70
  34.8324         62
  34.8510         69
  34.8696         71
  34.8881         62
  34.9067         60
  34.9253         65
  34.9439         65
  34.9624         64
  34.9810         61
  34.9996         60
  35.0182         57
  35.0367         51
  35.0553         49
  35.0739         48
  35.0925         53
  35.1110         55
  35.1296         50
  35.1482         56
  35.1668         61
  35.1854         50
  35.2039         52
  35.2225         63
  35.2411         52
  35.2597         65
  35.2782         47
  35.2968         67
  35.3154         60
  35.3340         59
  35.3525         55
  35.3711         62
  35.3897         64
  35.4083         63
  35.4268         60
  35.4454         47
  35.4640         41
  35.4826         68
  35.5011         44
  35.5197         47
  35.5383         68
  35.5569         42
  35.5754         54
  35.5940         38
  35.6126         53
  35.6312         53
  35.6497         48
  35.6683         53
  35.6869         38
  35.7055         49
  35.7240         51
  35.7426         53
  35.7612         45
  35.7798         42
  35.7983         40
  35.8169         53
  35.8355         55
  35.8541         35
  35.8726         53
  35.8912         41
  35.9098         70
  35.9284         52
  35.9469         53
  35.9655         49
  35.9841         68
  36.0027         49
  36.0213         48
  36.0398         60
  36.0584         39
  36.0770         54
  36.0956         47
  36.1141         42
  36.1327         46
  36.1513         52
  36.1699         43
  36.1884         50
  36.2070         51
  36.2256         43
  36.2442         42
  36.2627         52
  36.2813         50
  36.2999         44
  36.3185         37
  36.3370         52
  36.3556         51
  36.3742         49
  36.3928         40
  36.4113         43
  36.4299         37
  36.4485         36
  36.4671         39
  36.4856         49
  36.5042         68
  36.5228         43
  36.5414         55
  36.5599         40
  36.5785         44
  36.5971         43
  36.6157         31
  36.6342         47
  36.6528         39
  36.6714         44
  36.6900         50
  36.7085         40
  36.7271         48
  36.7457         43
  36.7643         59
  36.7829         44
  36.8014         54
  36.8200         56
  36.8386         44
  36.8572         52
  36.8757         51
  36.8943         51
  36.9129         42
  36.9315         48
  36.9500         37
  36.9686         35
  36.9872         34
  37.0058         46
  37.0243         53
  37.0429         53
  37.0615         41
  37.0801         51
  37.0986         46
  37.1172         45
  37.1358         45
  37.1544         46
  37.1729         38
  37.1915         43
  37.2101         45
  37.2287         53
  37.2472         52
  37.2658         38
  37.2844         58
  37.3030         35
  37.3215         46
  37.3401         42
  37.3587         59
  37.3773         53
  37.3958         56
  37.4144         67
  37.4330         75
  37.4516         72
  37.4701         69
  37.4887         47
  37.5073         54
  37.5259         73
  37.5445         63
  37.5630         64
  37.5816         57
  37.6002         50
  37.6188         40
  37.6373         43
  37.6559         44
  37.6745         45
  37.6931         57
  37.7116         50
  37.7302         52
  37.7488         37
  37.7674         51
  37.7859         47
  37.8045         42
  37.8231         44
  37.8417         48
  37.8602         46
  37.8788         45
  37.8974         53
  37.9160         52
  37.9345         53
  37.9531         36
  37.9717         55
  37.9903         42
  38.0088         39
  38.0274         34
  38.0460         48
  38.0646         52
  38.0831         51
  38.1017         51
  38.1203         40
  38.1389         33
  38.1574         47
  38.1760         38
  38.1946         39
  38.2132         39
  38.2317         39
  38.2503         34
  38.2689         43
  38.2875         46
  38.3061         49
  38.3246         40
  38.3432         41
  38.3618         38
  38.3804         49
  38.3989         36
  38.4175         41
  38.4361         40
  38.4547         54
  38.4732         41
  38.4918         45
  38.5104         43
  38.5290         51
  38.5475         36
  38.5661         40
  38.5847         45
  38.6033         51
  38.6218         32
  38.6404         40
  38.6590         42
  38.6776         44
  38.6961         40
  38.7147         36
  38.7333         36
  38.7519         55
  38.7704         41
  38.7890         40
  38.8076         30
  38.8262         49
  38.8447         50
  38.8633         45
  38.8819         52
  38.9005         46
  38.9190         41
  38.9376         37
  38.9562         34
  38.9748         37
  38.9933         29
  39.0119         35
  39.0305         46
  39.0491         34
  39.0677         35
  39.0862         40
  39.1048         43
  39.1234         48
  39.1420         44
  39.1605         23
  39.1791         51
  39.1977         35
  39.2163         37
  39.2348         39
  39.2534         44
  39.2720         49
  39.2906         23
  39.3091         40
  39.3277         37
  39.3463         33
  39.3649         42
  39.3834         42
  39.4020         34
  39.4206         46
  39.4392         55
  39.4577         40
  39.4763         39
  39.4949         44
  39.5135         41
  39.5320         35
  39.5506         34
  39.5692         32
  39.5878         41
  39.6063         28
  39.6249         34
  39.6435         34
  39.6621         38
  39.6806         47
  39.6992         39
  39.7178         41
  39.7364         37
  39.7549         35
  39.7735         39
  39.7921         44
  39.8107         53
  39.8293         40
  39.8478         45
  39.8664         37
  39.8850         49
  39.9036         50
  39.9221         43
  39.9407         44
  39.9593         36
  39.9779         40
  39.9964         32
  40.0150         33
  40.0336         35
  40.0522         37
  40.0707         34
  40.0893         40
  40.1079         39
  40.1265         40
  40.1450         52
  40.1636         28
  40.1822         33
  40.2008         36
  40.2193         28
  40.2379         45
  40.2565         32
  40.2751         37
  40.2936         33
  40.3122         42
  40.3308         42
  40.3494         32
  40.3679         43
  40.3865         34
  40.4051         38
  40.4237         37
  40.4422         50
  40.4608         53
  40.4794         37
  40.4980         26
  40.5165         34
  40.5351         41
  40.5537         40
  40.5723         27
  40.5908         40
  40.6094         39
  40.6280         40
  40.6466         37
  40.6652         39
  40.6837         37
  40.7023         34
  40.7209         44
  40.7395         33
  40.7580         41
  40.7766         43
  40.7952         45
  40.8138         34
  40.8323         36
  40.8509         27
  40.8695         32
  40.8881         48
  40.9066         40
  40.9252         38
  40.9438         48
  40.9624         40
  40.9809         49
  40.9995         48
  41.0181         22
  41.0367         31
  41.0552         47
  41.0738         41
  41.0924         35
  41.1110         46
  41.1295         28
  41.1481         39
  41.1667         39
  41.1853         37
  41.2038         34
  41.2224         30
  41.2410         35
  41.2596         40
  41.2781         46
  41.2967         33
  41.3153         42
  41.3339         44
  41.3524         52
  41.3710         33
  41.3896         38
  41.4082         46
  41.4268         37
  41.4453         37
  41.4639         22
  41.4825         32
  41.5011         41
  41.5196         33
  41.5382         40
  41.5568         28
  41.5754         33
  41.5939         37
  41.6125         43
  41.6311         30
  41.6497         37
  41.6682         34
  41.6868         50
  41.7054         37
  41.7240         34
  41.7425         43
  41.7611         41
  41.7797         41
  41.7983         38
  41.8168         30
  41.8354         36
  41.8540         31
  41.8726         46
  41.8911         40
  41.9097         34
  41.9283         44
  41.9469         43
  41.9654         38
  41.9840         48
  42.0026         32
  42.0212         32
  42.0397         37
  42.0583         29
  42.0769         42
  42.0955         48
  42.1140         35
  42.1326         32
  42.1512         30
  42.1698         41
  42.1884         45
  42.2069         41
  42.2255         43
  42.2441         35
  42.2627         33
  42.2812         42
  42.2998         26
  42.3184         42
  42.3370         36
  42.3555         32
  42.3741         34
  42.3927         34
  42.4113         51
  42.4298         30
  42.4484         32
  42.4670         41
  42.4856         35
  42.5041         49
  42.5227         27
  42.5413         32
  42.5599         32
  42.5784         38
  42.5970         42
  42.6156         25
  42.6342         38
  42.6527         45
  42.6713         38
  42.6899         33
  42.7085         41
  42.7270         43
  42.7456         35
  42.7642         40
  42.7828         38
  42.8013         43
  42.8199         32
  42.8385         35
  42.8571         26
  42.8756         32
  42.8942         47
  42.9128         35
  42.9314         39
  42.9500         42
  42.9685         33
  42.9871         30
  43.0057         34
  43.0243         34
  43.0428         36
  43.0614         32
  43.0800         33
  43.0986         34
  43.1171         32
  43.1357         45
  43.1543         44
  43.1729         42
  43.1914         42
  43.2100         36
  43.2286         50
  43.2472         61
  43.2657         40
  43.2843         48
  43.3029         45
  43.3215         34
  43.3400         36
  43.3586         51
  43.3772         52
  43.3958         45
  43.4143         34
  43.4329         38
  43.4515         45
  43.4701         51
  43.4886         64
  43.5072         57
  43.5258         62
  43.5444         46
  43.5629         42
  43.5815         44
  43.6001         40
  43.6187         55
  43.6372         39
  43.6558         41
  43.6744         37
  43.6930         28
  43.7116         39
  43.7301         43
  43.7487         34
  43.7673         43
  43.7859         46
  43.8044         38
  43.8230         40
  43.8416         25
  43.8602         37
  43.8787         34
  43.8973         46
  43.9159         39
  43.9345         23
  43.9530         48
  43.9716         40
  43.9902         27
  44.0088         43
  44.0273         36
  44.0459         39
  44.0645         40
  44.0831         24
  44.1016         45
  44.1202         35
  44.1388         32
  44.1574         38
  44.1759         37
  44.1945         28
  44.2131         36
  44.2317         41
  44.2502         37
  44.2688         36
  44.2874         35
  44.3060         40
  44.3245         35
  44.3431         34
  44.3617         41
  44.3803         39
  44.3988         30
  44.4174         37
  44.4360         44
  44.4546         37
  44.4732         31
  44.4917         43
  44.5103         40
  44.5289         29
  44.5475         38
  44.5660         51
  44.5846         37
  44.6032         39
  44.6218         37
  44.6403         32
  44.6589         44
  44.6775         45
  44.6961         47
  44.7146         31
  44.7332         36
  44.7518         51
  44.7704         37
  44.7889         38
  44.8075         36
  44.8261         37
  44.8447         40
  44.8632         41
  44.8818         42
  44.9004         22
  44.9190         32
  44.9375         43
  44.9561         33
  44.9747         30
  44.9933         28
  45.0118         34
  45.0304         33
  45.0490         40
  45.0676         30
  45.0861         29
  45.1047         33
  45.1233         33
  45.1419         29
  45.1604         47
  45.1790         32
  45.1976         29
  45.2162         34
  45.2347         35
  45.2533         27
  45.2719         32
  45.2905         28
  45.3091         29
  45.3276         28
  45.3462         23
  45.3648         30
  45.3834         26
  45.4019         32
  45.4205         35
  45.4391         44
  45.4577         41
  45.4762         42
  45.4948         36
  45.5134         35
  45.5320         43
  45.5505         44
  45.5691         48
  45.5877         34
  45.6063         29
  45.6248         23
  45.6434         31
  45.6620         29
  45.6806         25
  45.6991         27
  45.7177         32
  45.7363         29
  45.7549         26
  45.7734         46
  45.7920         33
  45.8106         27
  45.8292         29
  45.8477         34
  45.8663         29
  45.8849         33
  45.9035         31
  45.9220         33
  45.9406         32
  45.9592         38
  45.9778         48
  45.9963         36
  46.0149         31
  46.0335         27
  46.0521         39
  46.0707         29
  46.0892         31
  46.1078         26
  46.1264         31
  46.1450         26
  46.1635         36
  46.1821         33
  46.2007         33
  46.2193         31
  46.2378         28
  46.2564         25
  46.2750         28
  46.2936         31
  46.3121         33
  46.3307         40
  46.3493         34
  46.3679         26
  46.3864         33
  46.4050         32
  46.4236         33
  46.4422         25
  46.4607         21
  46.4793         30
  46.4979         24
  46.5165         33
  46.5350         31
  46.5536         34
  46.5722         29
  46.5908         33
  46.6093         35
  46.6279         18
  46.6465         26
  46.6651         30
  46.6836         26
  46.7022         30
  46.7208         39
  46.7394         37
  46.7579         20
  46.7765         35
  46.7951         49
  46.8137         34
  46.8323         44
  46.8508         50
  46.8694         27
  46.8880         37
  46.9066         38
  46.9251         23
  46.9437         33
  46.9623         33
  46.9809         31
  46.9994         28
  47.0180         33
  47.0366         43
  47.0552         24
  47.0737         32
  47.0923         33
  47.1109         32
  47.1295         35
  47.1480         22
  47.1666         30
  47.1852         28
  47.2038         38
  47.2223         25
  47.2409         36
  47.2595         37
  47.2781         33
  47.2966         27
  47.3152         37
  47.3338         25
  47.3524         31
  47.3709         27
  47.3895         34
  47.4081         39
  47.4267         39
  47.4452         31
  47.4638         41
  47.4824         45
  47.5010         37
  47.5195         34
  47.5381         30
  47.5567         31
  47.5753         30
  47.5939         40
  47.6124         30
  47.6310         33
  47.6496         32
  47.6682         26
  47.6867         33
  47.7053         30
  47.7239         34
  47.7425         36
  47.7610         31
  47.7796         33
  47.7982         40
  47.8168         27
  47.8353         29
  47.8539         33
  47.8725         25
  47.8911         29
  47.9096         28
  47.9282         39
  47.9468         36
  47.9654         31
  47.9839         31
  48.0025         24
  48.0211         26
  48.0397         32
  48.0582         18
  48.0768         32
  48.0954         31
  48.1140         28
  48.1325         33
  48.1511         32
  48.1697         34
  48.1883         34
  48.2068         35
  48.2254         38
  48.2440         32
  48.2626         38
  48.2811         32
  48.2997         28
  48.3183         35
  48.3369         45
  48.3555         29
  48.3740         27
  48.3926         32
  48.4112         26
  48.4298         33
  48.4483         35
  48.4669         32
  48.4855         29
  48.5041         27
  48.5226         25
  48.5412         27
  48.5598         30
  48.5784         27
  48.5969         33
  48.6155         22
  48.6341         28
  48.6527         30
  48.6712         36
  48.6898         27
  48.7084         28
  48.7270         28
  48.7455         29
  48.7641         30
  48.7827         27
  48.8013         30
  48.8198         24
  48.8384         33
  48.8570         35
  48.8756         31
  48.8941         40
  48.9127         32
  48.9313         54
  48.9499         63
  48.9684         53
  48.9870         55
  49.0056         44
  49.0242         39
  49.0427         40
  49.0613         53
  49.0799         52
  49.0985         42
  49.1171         43
  49.1356         35
  49.1542         41
  49.1728         29
  49.1914         37
  49.2099         33
  49.2285         30
  49.2471         44
  49.2657         36
  49.2842         23
  49.3028         32
  49.3214         25
  49.3400         39
  49.3585         35
  49.3771         26
  49.3957         32
  49.4143         35
  49.4328         35
  49.4514         28
  49.4700         24
  49.4886         34
  49.5071         21
  49.5257         37
  49.5443         27
  49.5629         28
  49.5814         33
  49.6000         37
  49.6186         23
  49.6372         30
  49.6557         31
  49.6743         30
  49.6929         27
  49.7115         31
  49.7300         34
  49.7486         31
  49.7672         30
  49.7858         41
  49.8043         28
  49.8229         29
  49.8415         38
  49.8601         24
  49.8786         32
  49.8972         31
  49.9158         23
  49.9344         21
  49.9530         22
  49.9715         38
  49.9901         37
  50.0087         30
  50.0273         39
  50.0458         38
  50.0644         30
  50.0830         34
  50.1016         34
  50.1201         34
  50.1387         22
  50.1573         24
  50.1759         24
  50.1944         34
  50.2130         35
  50.2316         27
  50.2502         28
  50.2687         36
  50.2873         31
  50.3059         30
  50.3245         37
  50.3430         39
  50.3616         29
  50.3802         30
  50.3988         27
  50.4173         23
  50.4359         20
  50.4545         23
  50.4731         34
  50.4916         25
  50.5102         28
  50.5288         38
  50.5474         36
  50.5659         25
  50.5845         31
  50.6031         35
  50.6217         33
  50.6402         25
  50.6588         41
  50.6774         30
  50.6960         30
  50.7146         22
  50.7331         34
  50.7517         22
  50.7703         22
  50.7889         21
  50.8074         37
  50.8260         30
  50.8446         39
  50.8632         28
  50.8817         25
  50.9003         20
  50.9189         29
  50.9375         26
  50.9560         35
  50.9746         30
  50.9932         22
  51.0118         35
  51.0303         23
  51.0489         34
  51.0675         28
  51.0861         28
  51.1046         31
  51.1232         29
  51.1418         37
  51.1604         30
  51.1789         27
  51.1975         27
  51.2161         35
  51.2347         25
  51.2532         20
  51.2718         27
  51.2904         32
  51.3090         40
  51.3275         30
  51.3461         27
  51.3647         37
  51.3833         40
  51.4018         51
  51.4204         38
  51.4390         33
  51.4576         40
  51.4762         33
  51.4947         30
  51.5133         35
  51.5319         42
  51.5505         35
  51.5690         40
  51.5876         29
  51.6062         45
  51.6248         42
  51.6433         28
  51.6619         21
  51.6805         36
  51.6991         32
  51.7176         31
  51.7362         27
  51.7548         35
  51.7734         29
  51.7919         31
  51.8105         36
  51.8291         35
  51.8477         43
  51.8662         45
  51.8848         31
  51.9034         32
  51.9220         26
  51.9405         30
  51.9591         40
  51.9777         26
  51.9963         25
  52.0148         34
  52.0334         34
  52.0520         28
  52.0706         23
  52.0891         29
  52.1077         30
  52.1263         32
  52.1449         34
  52.1634         46
  52.1820         31
  52.2006         30
  52.2192         27
  52.2378         30
  52.2563         23
  52.2749         22
  52.2935         29
  52.3121         20
  52.3306         21
  52.3492         20
  52.3678         26
  52.3864         30
  52.4049         27
  52.4235         29
  52.4421         29
  52.4607         25
  52.4792         34
  52.4978         33
  52.5164         25
  52.5350         34
  52.5535         23
  52.5721         22
  52.5907         34
  52.6093         25
  52.6278         25
  52.6464         31
  52.6650         35
  52.6836         29
  52.7021         22
  52.7207         22
  52.7393         26
  52.7579         27
  52.7764         41
  52.7950         31
  52.8136         29
  52.8322         28
  52.8507         35
  52.8693         27
  52.8879         32
  52.9065         30
  52.9250         30
  52.9436         32
  52.9622         38
  52.9808         33
  52.9994         29
  53.0179         38
  53.0365         31
  53.0551         29
  53.0737         27
  53.0922         26
  53.1108         27
  53.1294         28
  53.1480         26
  53.1665         33
  53.1851         31
  53.2037         24
  53.2223         31
  53.2408         36
  53.2594         23
  53.2780         19
  53.2966         27
  53.3151         26
  53.3337         30
  53.3523         34
  53.3709         25
  53.3894         26
  53.4080         25
  53.4266         14
  53.4452         29
  53.4637         35
  53.4823         27
  53.5009         26
  53.5195         28
  53.5380         28
  53.5566         32
  53.5752         35
  53.5938         36
  53.6123         29
  53.6309         37
  53.6495         35
  53.6681         29
  53.6866         30
  53.7052         32
  53.7238         28
  53.7424         28
  53.7610         25
  53.7795         33
  53.7981         30
  53.8167         25
  53.8353         30
  53.8538         27
  53.8724         42
  53.8910         32
  53.9096         30
  53.9281         29
  53.9467         40
  53.9653         41
  53.9839         51
  54.0024         34
  54.0210         23
  54.0396         39
  54.0582         36
  54.0767         39
  54.0953         35
  54.1139         27
  54.1325         36
  54.1510         40
  54.1696         28
  54.1882         21
  54.2068         39
  54.2253         35
  54.2439         26
  54.2625         31
  54.2811         28
  54.2996         29
  54.3182         28
  54.3368         30
  54.3554         26
  54.3739         27
  54.3925         27
  54.4111         32
  54.4297         35
  54.4482         32
  54.4668         20
  54.4854         31
  54.5040         33
  54.5225         27
  54.5411         26
  54.5597         25
  54.5783         30
  54.5969         24
  54.6154         32
  54.6340         22
  54.6526         38
  54.6712         29
  54.6897         28
  54.7083         35
  54.7269         33
  54.7455         40
  54.7640         23
  54.7826         25
  54.8012         30
  54.8198         36
  54.8383         29
  54.8569         24
  54.8755         26
  54.8941         30
  54.9126         31
  54.9312         34
  54.9498         25
  54.9684         33
  54.9869         36
  55.0055         23
  55.0241         30
  55.0427         22
  55.0612         32
  55.0798         36
  55.0984         27
  55.1170         29
  55.1355         30
  55.1541         35
  55.1727         30
  55.1913         26
  55.2098         16
  55.2284         40
  55.2470         23
  55.2656         27
  55.2841         30
  55.3027         21
  55.3213         26
  55.3399         24
  55.3585         28
  55.3770         21
  55.3956         24
  55.4142         30
  55.4328         34
  55.4513         25
  55.4699         23
  55.4885         40
  55.5071         20
  55.5256         30
  55.5442         17
  55.5628         22
  55.5814         22
  55.5999         17
  55.6185         28
  55.6371         33
  55.6557         34
  55.6742         23
  55.6928         26
  55.7114         24
  55.7300         27
  55.7485         28
  55.7671         22
  55.7857         25
  55.8043         21
  55.8228         24
  55.8414         24
  55.8600         21
  55.8786         30
  55.8971         33
  55.9157         31
  55.9343         28
  55.9529         38
  55.9714         33
  55.9900         21
  56.0086         32
  56.0272         36
  56.0457         32
  56.0643         31
  56.0829         30
  56.1015         36
  56.1201         32
  56.1386         24
  56.1572         39
  56.1758         41
  56.1944         30
  56.2129         36
  56.2315         32
  56.2501         34
  56.2687         32
  56.2872         35
  56.3058         33
  56.3244         21
  56.3430         24
  56.3615         33
  56.3801         26
  56.3987         22
  56.4173         27
  56.4358         23
  56.4544         25
  56.4730         27
  56.4916         32
  56.5101         33
  56.5287         34
  56.5473         36
  56.5659         27
  56.5844         30
  56.6030         28
  56.6216         28
  56.6402         25
  56.6587         29
  56.6773         24
  56.6959         23
  56.7145         35
  56.7330         47
  56.7516         29
  56.7702         24
  56.7888         21
  56.8073         26
  56.8259         33
  56.8445         33
  56.8631         32
  56.8817         27
  56.9002         26
  56.9188         28
  56.9374         26
  56.9560         22
  56.9745         23
  56.9931         32
  57.0117         32
  57.0303         28
  57.0488         23
  57.0674         24
  57.0860         35
  57.1046         23
  57.1231         23
  57.1417         29
  57.1603         23
  57.1789         24
  57.1974         25
  57.2160         29
  57.2346         27
  57.2532         32
  57.2717         40
  57.2903         24
  57.3089         15
  57.3275         31
  57.3460         29
  57.3646         26
  57.3832         28
  57.4018         26
  57.4203         28
  57.4389         23
  57.4575         32
  57.4761         24
  57.4946         28
  57.5132         30
  57.5318         27
  57.5504         39
  57.5689         32
  57.5875         25
  57.6061         26
  57.6247         21
  57.6433         22
  57.6618         36
  57.6804         33
  57.6990         26
  57.7176         27
  57.7361         22
  57.7547         21
  57.7733         23
  57.7919         33
  57.8104         36
  57.8290         26
  57.8476         34
  57.8662         30
  57.8847         35
  57.9033         32
  57.9219         45
  57.9405         21
  57.9590         29
  57.9776         20
  57.9962         21
  58.0148         29
  58.0333         24
  58.0519         28
  58.0705         31
  58.0891         23
  58.1076         30
  58.1262         29
  58.1448         25
  58.1634         31
  58.1819         29
  58.2005         25
  58.2191         24
  58.2377         29
  58.2562         18
  58.2748         23
  58.2934         28
  58.3120         28
  58.3305         23
  58.3491         33
  58.3677         28
  58.3863         21
  58.4049         30
  58.4234         27
  58.4420         28
  58.4606         23
  58.4792         44
  58.4977         21
  58.5163         29
  58.5349         24
  58.5535         24
  58.5720         17
  58.5906         24
  58.6092         24
  58.6278         25
  58.6463         27
  58.6649         31
  58.6835         29
  58.7021         29
  58.7206         24
  58.7392         23
  58.7578         35
  58.7764         27
  58.7949         23
  58.8135         25
  58.8321         26
  58.8507         26
  58.8692         29
  58.8878         27
  58.9064         22
  58.9250         31
  58.9435         27
  58.9621         31
  58.9807         20
  58.9993         24
  59.0178         27
  59.0364         38
  59.0550         29
  59.0736         24
  59.0921         29
  59.1107         25
  59.1293         36
  59.1479         29
  59.1664         25
  59.1850         25
  59.2036         35
  59.2222         32
  59.2408         26
  59.2593         28
  59.2779         27
  59.2965         29
  59.3151         18
  59.3336         28
  59.3522         24
  59.3708         36
  59.3894         25
  59.4079         29
  59.4265         24
  59.4451         28
  59.4637         23
  59.4822         29
  59.5008         26
  59.5194         24
  59.5380         27
  59.5565         21
  59.5751         19
  59.5937         31
  59.6123         23
  59.6308         21
  59.6494         22
  59.6680         38
  59.6866         34
  59.7051         26
  59.7237         21
  59.7423         37
  59.7609         29
  59.7794         41
  59.7980         32
  59.8166         38
  59.8352         26
  59.8537         25
  59.8723         23
  59.8909         33
  59.9095         31
  59.9280         27
  59.9466         33
  59.9652         30
  59.9838         35
  60.0024         26
