; (content of file Y:\Sam\Apurva-07-20-2022\puck4\ML_20220718_51_SJD_4_LaB6-2min.raw)
_FILEVERSION = 3
_SAMPLE = ML_20220718_51_SJD_4_LaB6-2min
_+SAMPLE = 
_SITE = USA
_USER = Administrator
_GONIOMETER_CODE = 20
; Goniometer : D8 theta/2theta, stage : Unknown
_ATTACHMENTS_CODE = 0
_GONIOMETER_RADIUS = 200.5
_FIXED_DIVSLIT = 0.6
_FIXED_SAMPLESLIT = 0
_SOLLER_SLITS = 2
_FIXED_DETSLIT = 9.55
_MONOCHROMATOR = 0
; Incident beam monochromator : None
_SOLLER_SLITS_2 = N
_THIN_FILM = N
_BETA_FILTER = Y
_FIXED_ANTISLIT = 5.89
_ANALYZER_CODE = 0
; Received beam analyzer : None
_DATEMEASURED = "26-Jul-2022 12:30:02"
_WL_UNIT = A
_WL1 = 1.5406
_WL2 = 1.54439
_WL3 = 1.39222
_WLRATIO = 0.5
_ANODE = Cu
_V4_INF_CREATOR = XRDWizard
_V4_INF_CREATOR_VERSION = V2.9.0.22
_V4_INF_WIZARD_VERSION = V2.9.0.22
_V4_INF_WIZARD_ADDINS = V2.9.0.22
_V4_INF_WIZARD_DOCTYPE = XRD
_V4_INF_OSUSER = McQueenLab
_V4_INF_USER = Administrator
_V4_INF_SITE = USA
_V4_INF_SAMPLEID = ML_20220718_51_SJD_4_LaB6-2min

; Data for range 1
_DRIVE = COUPLED
_STEPTIME = 5.64
_STEPSIZE = 0.0185756
_STEPMODE = C
_START = 5
_THETA = 2.5
_2THETA = 5
_KHI = 0
_PHI = 0
_X = 0
_Y = 0
_Z = 0
_DETECTOR = 5
; Detector type : Unknown
_DETECTORSLIT = unkn
_AUX1 = 0
_AUX2 = 0
_AUX3 = 0
_TIMESTARTED = 15
_TEMP_RATE = -1
_TEMP_DELAY = -1
_KV = 40
_MA = 40
_RANGE_WL = 1.5406
_3DPLANE = 0
_V4_ADDITIONALDETECTOR = 257
_V4_PSD2THETA = 3.3734
_V4_PSDCHANNEL1 = 0
_V4_PSDAPERTURE = 12.68
_V4_PSDTYPE = 5
_V4_PSDFIXED = 0
_V4_COUNTERS_MASK = 4096
_V4_DRIVES_MASK = 0
_V4_ENCODERS_MASK = 0
_2THETACOUNTS = 1
; 2THETA  PSD
   5.0000        131
   5.0186        139
   5.0372        115
   5.0557        163
   5.0743        122
   5.0929        117
   5.1115        120
   5.1300        123
   5.1486        115
   5.1672        143
   5.1858        118
   5.2043        133
   5.2229        106
   5.2415        109
   5.2601        143
   5.2786        133
   5.2972        111
   5.3158        102
   5.3344        105
   5.3529        126
   5.3715        115
   5.3901        128
   5.4087        126
   5.4272        128
   5.4458        107
   5.4644        119
   5.4830        107
   5.5015        105
   5.5201        106
   5.5387        121
   5.5573        121
   5.5758        115
   5.5944        108
   5.6130        104
   5.6316        104
   5.6501         95
   5.6687        103
   5.6873        103
   5.7059        123
   5.7244        104
   5.7430        105
   5.7616         91
   5.7802         99
   5.7988        100
   5.8173        105
   5.8359        112
   5.8545        112
   5.8731         94
   5.8916         97
   5.9102        107
   5.9288         93
   5.9474        104
   5.9659        102
   5.9845        111
   6.0031        100
   6.0217        102
   6.0402        102
   6.0588         87
   6.0774        106
   6.0960         89
   6.1145         81
   6.1331         98
   6.1517        103
   6.1703         84
   6.1888        108
   6.2074        111
   6.2260        121
   6.2446         89
   6.2631         87
   6.2817        105
   6.3003         97
   6.3189         98
   6.3374         86
   6.3560         88
   6.3746         90
   6.3932         89
   6.4117         83
   6.4303         80
   6.4489         98
   6.4675        102
   6.4860         79
   6.5046         86
   6.5232         98
   6.5418         96
   6.5604         80
   6.5789        101
   6.5975         92
   6.6161         94
   6.6347         80
   6.6532         92
   6.6718         96
   6.6904         98
   6.7090         71
   6.7275         89
   6.7461         84
   6.7647         62
   6.7833         72
   6.8018         79
   6.8204         73
   6.8390         86
   6.8576         84
   6.8761         87
   6.8947         86
   6.9133         82
   6.9319         83
   6.9504         88
   6.9690         72
   6.9876         79
   7.0062         85
   7.0247         86
   7.0433         74
   7.0619         72
   7.0805         79
   7.0990         87
   7.1176         83
   7.1362         90
   7.1548         92
   7.1733         79
   7.1919         89
   7.2105         79
   7.2291         90
   7.2476         82
   7.2662         76
   7.2848         90
   7.3034         76
   7.3220         79
   7.3405         94
   7.3591         78
   7.3777         86
   7.3963         64
   7.4148         73
   7.4334        102
   7.4520         82
   7.4706         93
   7.4891         73
   7.5077         86
   7.5263         93
   7.5449         67
   7.5634         79
   7.5820         97
   7.6006         74
   7.6192         76
   7.6377         89
   7.6563         83
   7.6749         95
   7.6935         72
   7.7120         66
   7.7306         86
   7.7492         69
   7.7678         73
   7.7863         87
   7.8049         86
   7.8235         90
   7.8421         88
   7.8606         89
   7.8792         91
   7.8978         84
   7.9164         97
   7.9349         86
   7.9535         75
   7.9721         93
   7.9907         96
   8.0092        103
   8.0278         97
   8.0464        100
   8.0650         97
   8.0835         92
   8.1021        101
   8.1207         84
   8.1393         95
   8.1579         87
   8.1764         82
   8.1950         85
   8.2136         94
   8.2322         98
   8.2507        108
   8.2693         96
   8.2879         81
   8.3065         95
   8.3250        106
   8.3436         89
   8.3622        108
   8.3808         94
   8.3993         82
   8.4179         90
   8.4365         98
   8.4551         88
   8.4736        103
   8.4922        116
   8.5108        104
   8.5294         97
   8.5479        113
   8.5665         88
   8.5851        102
   8.6037        101
   8.6222        104
   8.6408        118
   8.6594        104
   8.6780        107
   8.6965         94
   8.7151         88
   8.7337        111
   8.7523         93
   8.7708         84
   8.7894         94
   8.8080         94
   8.8266         95
   8.8451        120
   8.8637        100
   8.8823         94
   8.9009        102
   8.9195         98
   8.9380         95
   8.9566         96
   8.9752        115
   8.9938        118
   9.0123        103
   9.0309        106
   9.0495        117
   9.0681        105
   9.0866        121
   9.1052        110
   9.1238        124
   9.1424        117
   9.1609         99
   9.1795        116
   9.1981        109
   9.2167         98
   9.2352        116
   9.2538        121
   9.2724        126
   9.2910        106
   9.3095        113
   9.3281        121
   9.3467        101
   9.3653        100
   9.3838        110
   9.4024        107
   9.4210        107
   9.4396        111
   9.4581         99
   9.4767        114
   9.4953        107
   9.5139        107
   9.5324        108
   9.5510        112
   9.5696        116
   9.5882        120
   9.6067        111
   9.6253        105
   9.6439        106
   9.6625        113
   9.6811        106
   9.6996        113
   9.7182        113
   9.7368        121
   9.7554        110
   9.7739        104
   9.7925        112
   9.8111        110
   9.8297        132
   9.8482        111
   9.8668        110
   9.8854        120
   9.9040        126
   9.9225        123
   9.9411        103
   9.9597        103
   9.9783        103
   9.9968        120
  10.0154         91
  10.0340        104
  10.0526        125
  10.0711        143
  10.0897        109
  10.1083        119
  10.1269        118
  10.1454        105
  10.1640         97
  10.1826        129
  10.2012        117
  10.2197        133
  10.2383        129
  10.2569        106
  10.2755        122
  10.2940        122
  10.3126        119
  10.3312        103
  10.3498        127
  10.3683        133
  10.3869        105
  10.4055        114
  10.4241        118
  10.4427        112
  10.4612        119
  10.4798        109
  10.4984        120
  10.5170        134
  10.5355        118
  10.5541        141
  10.5727        108
  10.5913        111
  10.6098        131
  10.6284        115
  10.6470        141
  10.6656        115
  10.6841        108
  10.7027        139
  10.7213        113
  10.7399        126
  10.7584        111
  10.7770        122
  10.7956        113
  10.8142        121
  10.8327        117
  10.8513        109
  10.8699        130
  10.8885        105
  10.9070        107
  10.9256         99
  10.9442         98
  10.9628        112
  10.9813        131
  10.9999        137
  11.0185        105
  11.0371        120
  11.0556        108
  11.0742        112
  11.0928        112
  11.1114        113
  11.1299        130
  11.1485        128
  11.1671         97
  11.1857        101
  11.2043        107
  11.2228        119
  11.2414        117
  11.2600        118
  11.2786        118
  11.2971        125
  11.3157        101
  11.3343        126
  11.3529        133
  11.3714        105
  11.3900        102
  11.4086        117
  11.4272        101
  11.4457        113
  11.4643        110
  11.4829        131
  11.5015        101
  11.5200        112
  11.5386        120
  11.5572        120
  11.5758        117
  11.5943        102
  11.6129        100
  11.6315        112
  11.6501        122
  11.6686        106
  11.6872         96
  11.7058        133
  11.7244        115
  11.7429        108
  11.7615        112
  11.7801        129
  11.7987         92
  11.8172        128
  11.8358        114
  11.8544        111
  11.8730        118
  11.8915        128
  11.9101        131
  11.9287        110
  11.9473        116
  11.9659         92
  11.9844        112
  12.0030        121
  12.0216        114
  12.0402        103
  12.0587        104
  12.0773        107
  12.0959        119
  12.1145        114
  12.1330        122
  12.1516        107
  12.1702        114
  12.1888        107
  12.2073         95
  12.2259        118
  12.2445        101
  12.2631        108
  12.2816        124
  12.3002         90
  12.3188        105
  12.3374        118
  12.3559        133
  12.3745        108
  12.3931         98
  12.4117        106
  12.4302        109
  12.4488        115
  12.4674        123
  12.4860        104
  12.5045        101
  12.5231        108
  12.5417        116
  12.5603        105
  12.5788        105
  12.5974        109
  12.6160        122
  12.6346        112
  12.6531        111
  12.6717        118
  12.6903         97
  12.7089        108
  12.7274        112
  12.7460         95
  12.7646        105
  12.7832        103
  12.8018         94
  12.8203        115
  12.8389         77
  12.8575        103
  12.8761         97
  12.8946        106
  12.9132        113
  12.9318        120
  12.9504        101
  12.9689         95
  12.9875        106
  13.0061        117
  13.0247        104
  13.0432        121
  13.0618         76
  13.0804        105
  13.0990        102
  13.1175        117
  13.1361        117
  13.1547        102
  13.1733         92
  13.1918        107
  13.2104         89
  13.2290        103
  13.2476        103
  13.2661        107
  13.2847        100
  13.3033         96
  13.3219        100
  13.3404         94
  13.3590         96
  13.3776         89
  13.3962         96
  13.4147        114
  13.4333        101
  13.4519         86
  13.4705         94
  13.4890         93
  13.5076         96
  13.5262         75
  13.5448         97
  13.5634         91
  13.5819        108
  13.6005         94
  13.6191         89
  13.6377        105
  13.6562         96
  13.6748         91
  13.6934         80
  13.7120        111
  13.7305         97
  13.7491         89
  13.7677        103
  13.7863         77
  13.8048        100
  13.8234         80
  13.8420         90
  13.8606         75
  13.8791         93
  13.8977        109
  13.9163         92
  13.9349         81
  13.9534         97
  13.9720         86
  13.9906        100
  14.0092         81
  14.0277         96
  14.0463         72
  14.0649         90
  14.0835         86
  14.1020         84
  14.1206         90
  14.1392        104
  14.1578         92
  14.1763         88
  14.1949         76
  14.2135         89
  14.2321         85
  14.2506        107
  14.2692         87
  14.2878         83
  14.3064         78
  14.3250         78
  14.3435         94
  14.3621         71
  14.3807         82
  14.3993         87
  14.4178        101
  14.4364         91
  14.4550         75
  14.4736        101
  14.4921         86
  14.5107         88
  14.5293         96
  14.5479         88
  14.5664         81
  14.5850         85
  14.6036        105
  14.6222        109
  14.6407         79
  14.6593         72
  14.6779        108
  14.6965         77
  14.7150         62
  14.7336         85
  14.7522         75
  14.7708         85
  14.7893         99
  14.8079         83
  14.8265         80
  14.8451         76
  14.8636         95
  14.8822         94
  14.9008         73
  14.9194         69
  14.9379        103
  14.9565         94
  14.9751         89
  14.9937         88
  15.0122         88
  15.0308         87
  15.0494         82
  15.0680         72
  15.0866         93
  15.1051        104
  15.1237         78
  15.1423         82
  15.1609         94
  15.1794         76
  15.1980         78
  15.2166         80
  15.2352         82
  15.2537         74
  15.2723         93
  15.2909         89
  15.3095         90
  15.3280        104
  15.3466         75
  15.3652         76
  15.3838         82
  15.4023         71
  15.4209         68
  15.4395         80
  15.4581         93
  15.4766         71
  15.4952         98
  15.5138         90
  15.5324         75
  15.5509         72
  15.5695         80
  15.5881         79
  15.6067         64
  15.6252         74
  15.6438         81
  15.6624         74
  15.6810         84
  15.6995         75
  15.7181         86
  15.7367         85
  15.7553         92
  15.7738         80
  15.7924         74
  15.8110         88
  15.8296         79
  15.8482         97
  15.8667        101
  15.8853         75
  15.9039         76
  15.9225         86
  15.9410         80
  15.9596         81
  15.9782         75
  15.9968         88
  16.0153         79
  16.0339         89
  16.0525         86
  16.0711         70
  16.0896         82
  16.1082         82
  16.1268         89
  16.1454         72
  16.1639         76
  16.1825         92
  16.2011         72
  16.2197         83
  16.2382         86
  16.2568         63
  16.2754         93
  16.2940         84
  16.3125         61
  16.3311         83
  16.3497         74
  16.3683         88
  16.3868         85
  16.4054         68
  16.4240         63
  16.4426         83
  16.4611         95
  16.4797         83
  16.4983         70
  16.5169         85
  16.5354         69
  16.5540         88
  16.5726         80
  16.5912         68
  16.6097         74
  16.6283         79
  16.6469         86
  16.6655         88
  16.6841         73
  16.7026         79
  16.7212         99
  16.7398         89
  16.7584         61
  16.7769         80
  16.7955         81
  16.8141         90
  16.8327         84
  16.8512         97
  16.8698         81
  16.8884         82
  16.9070         86
  16.9255         96
  16.9441         72
  16.9627         85
  16.9813         80
  16.9998         76
  17.0184         77
  17.0370         86
  17.0556         77
  17.0741         80
  17.0927         94
  17.1113         69
  17.1299         80
  17.1484         79
  17.1670         83
  17.1856         83
  17.2042         88
  17.2227         78
  17.2413         79
  17.2599         89
  17.2785         81
  17.2970         95
  17.3156         73
  17.3342         90
  17.3528         63
  17.3713         74
  17.3899         81
  17.4085         87
  17.4271         86
  17.4457         88
  17.4642         82
  17.4828         76
  17.5014         86
  17.5200         75
  17.5385         95
  17.5571         87
  17.5757         79
  17.5943         74
  17.6128         86
  17.6314         80
  17.6500         69
  17.6686         84
  17.6871         86
  17.7057         84
  17.7243        101
  17.7429         68
  17.7614         89
  17.7800         74
  17.7986         84
  17.8172         80
  17.8357         84
  17.8543         76
  17.8729         74
  17.8915         86
  17.9100         65
  17.9286         80
  17.9472         79
  17.9658         93
  17.9843         78
  18.0029         80
  18.0215         96
  18.0401         87
  18.0586         88
  18.0772         86
  18.0958         89
  18.1144         79
  18.1329         86
  18.1515         82
  18.1701         76
  18.1887         76
  18.2073         84
  18.2258         87
  18.2444         63
  18.2630         88
  18.2816         96
  18.3001         67
  18.3187         74
  18.3373         97
  18.3559         72
  18.3744         90
  18.3930         77
  18.4116         98
  18.4302         80
  18.4487         76
  18.4673         74
  18.4859         89
  18.5045         74
  18.5230         97
  18.5416         84
  18.5602         83
  18.5788         92
  18.5973         91
  18.6159         76
  18.6345         76
  18.6531         86
  18.6716         68
  18.6902         78
  18.7088         78
  18.7274         75
  18.7459         88
  18.7645         65
  18.7831         71
  18.8017         78
  18.8202         79
  18.8388         89
  18.8574        103
  18.8760         84
  18.8945         88
  18.9131         76
  18.9317         79
  18.9503         90
  18.9689         84
  18.9874        103
  19.0060         76
  19.0246         94
  19.0432         76
  19.0617         90
  19.0803         77
  19.0989         87
  19.1175         99
  19.1360         82
  19.1546         83
  19.1732         81
  19.1918         76
  19.2103        100
  19.2289         84
  19.2475         81
  19.2661         93
  19.2846        103
  19.3032         73
  19.3218         89
  19.3404         96
  19.3589         95
  19.3775         75
  19.3961         78
  19.4147         67
  19.4332         69
  19.4518         85
  19.4704         90
  19.4890         85
  19.5075         77
  19.5261         96
  19.5447         89
  19.5633         96
  19.5818        100
  19.6004        102
  19.6190         86
  19.6376         83
  19.6561         70
  19.6747         91
  19.6933         72
  19.7119        104
  19.7305         95
  19.7490         86
  19.7676         79
  19.7862         99
  19.8048         88
  19.8233         76
  19.8419         77
  19.8605         83
  19.8791        100
  19.8976         99
  19.9162         98
  19.9348         90
  19.9534         89
  19.9719        103
  19.9905         86
  20.0091         83
  20.0277         75
  20.0462         78
  20.0648         79
  20.0834         88
  20.1020         85
  20.1205         86
  20.1391         86
  20.1577         95
  20.1763         92
  20.1948         90
  20.2134         68
  20.2320         99
  20.2506         99
  20.2691         95
  20.2877         93
  20.3063         79
  20.3249         87
  20.3434        103
  20.3620         86
  20.3806         80
  20.3992        104
  20.4177        100
  20.4363         89
  20.4549         95
  20.4735         77
  20.4921         90
  20.5106         87
  20.5292        108
  20.5478         73
  20.5664         84
  20.5849         91
  20.6035        103
  20.6221        102
  20.6407        105
  20.6592         88
  20.6778         94
  20.6964        118
  20.7150        105
  20.7335         86
  20.7521         87
  20.7707         86
  20.7893         90
  20.8078         96
  20.8264        115
  20.8450         94
  20.8636         85
  20.8821         84
  20.9007         94
  20.9193         85
  20.9379         78
  20.9564        107
  20.9750        103
  20.9936        100
  21.0122        112
  21.0307        105
  21.0493         80
  21.0679         82
  21.0865        103
  21.1050         96
  21.1236        109
  21.1422        106
  21.1608        132
  21.1793        110
  21.1979        154
  21.2165        155
  21.2351        169
  21.2537        157
  21.2722        122
  21.2908        166
  21.3094        161
  21.3280        196
  21.3465        247
  21.3651        295
  21.3837        192
  21.4023        182
  21.4208        159
  21.4394        145
  21.4580         99
  21.4766        106
  21.4951         96
  21.5137        104
  21.5323        106
  21.5509        109
  21.5694         94
  21.5880        100
  21.6066        100
  21.6252        109
  21.6437         94
  21.6623        103
  21.6809         69
  21.6995         94
  21.7180        100
  21.7366         92
  21.7552         99
  21.7738         98
  21.7923        101
  21.8109         84
  21.8295         94
  21.8481         96
  21.8666         90
  21.8852         99
  21.9038         93
  21.9224        100
  21.9409        107
  21.9595         98
  21.9781        107
  21.9967         96
  22.0152         93
  22.0338        130
  22.0524        126
  22.0710         91
  22.0896        109
  22.1081         90
  22.1267        104
  22.1453         92
  22.1639         93
  22.1824         83
  22.2010         89
  22.2196         94
  22.2382         89
  22.2567         83
  22.2753        105
  22.2939        102
  22.3125         84
  22.3310        108
  22.3496         97
  22.3682         96
  22.3868         99
  22.4053         99
  22.4239        104
  22.4425        104
  22.4611        107
  22.4796        103
  22.4982         91
  22.5168         98
  22.5354         96
  22.5539        110
  22.5725         90
  22.5911        108
  22.6097        101
  22.6282         80
  22.6468         83
  22.6654         96
  22.6840         95
  22.7025        116
  22.7211        107
  22.7397        119
  22.7583         86
  22.7768        103
  22.7954         99
  22.8140         97
  22.8326         95
  22.8512        109
  22.8697         93
  22.8883         90
  22.9069         81
  22.9255        100
  22.9440         87
  22.9626         88
  22.9812         92
  22.9998         83
  23.0183         91
  23.0369        101
  23.0555         83
  23.0741         86
  23.0926        106
  23.1112         91
  23.1298        108
  23.1484         99
  23.1669         94
  23.1855         85
  23.2041         91
  23.2227         89
  23.2412         96
  23.2598         96
  23.2784         93
  23.2970         96
  23.3155        107
  23.3341         92
  23.3527         85
  23.3713        101
  23.3898         88
  23.4084        113
  23.4270        110
  23.4456         84
  23.4641        101
  23.4827         95
  23.5013        117
  23.5199        111
  23.5384         91
  23.5570         98
  23.5756        109
  23.5942         99
  23.6128         90
  23.6313         97
  23.6499        102
  23.6685        124
  23.6871         87
  23.7056        109
  23.7242        111
  23.7428         84
  23.7614        108
  23.7799         99
  23.7985        107
  23.8171         96
  23.8357         95
  23.8542         93
  23.8728         92
  23.8914        103
  23.9100        102
  23.9285        100
  23.9471        106
  23.9657        114
  23.9843         90
  24.0028        109
  24.0214        104
  24.0400        107
  24.0586        109
  24.0771        108
  24.0957         95
  24.1143        102
  24.1329         95
  24.1514         94
  24.1700         93
  24.1886        106
  24.2072        106
  24.2257        113
  24.2443        106
  24.2629        117
  24.2815        115
  24.3000        124
  24.3186        102
  24.3372        119
  24.3558        110
  24.3744        112
  24.3929         99
  24.4115         98
  24.4301         98
  24.4487        100
  24.4672         81
  24.4858         96
  24.5044        104
  24.5230        130
  24.5415        111
  24.5601         87
  24.5787         82
  24.5973        101
  24.6158        116
  24.6344        107
  24.6530         92
  24.6716        107
  24.6901        101
  24.7087         93
  24.7273         96
  24.7459        108
  24.7644         91
  24.7830        106
  24.8016         92
  24.8202        110
  24.8387         93
  24.8573        123
  24.8759        110
  24.8945         88
  24.9130         92
  24.9316         75
  24.9502        107
  24.9688         97
  24.9873         81
  25.0059        108
  25.0245         81
  25.0431        105
  25.0616        111
  25.0802         95
  25.0988         96
  25.1174        104
  25.1360         81
  25.1545         96
  25.1731         89
  25.1917         95
  25.2103         96
  25.2288         99
  25.2474        108
  25.2660         97
  25.2846         94
  25.3031        116
  25.3217        105
  25.3403        105
  25.3589         95
  25.3774         84
  25.3960        106
  25.4146        102
  25.4332         92
  25.4517        121
  25.4703        108
  25.4889        107
  25.5075         94
  25.5260         98
  25.5446         98
  25.5632        102
  25.5818         90
  25.6003         95
  25.6189         91
  25.6375        112
  25.6561         94
  25.6746         79
  25.6932         90
  25.7118        105
  25.7304        110
  25.7489         94
  25.7675         99
  25.7861         86
  25.8047         98
  25.8232        107
  25.8418         99
  25.8604         98
  25.8790        102
  25.8976         93
  25.9161         90
  25.9347         81
  25.9533         86
  25.9719         98
  25.9904         91
  26.0090         93
  26.0276         94
  26.0462         83
  26.0647         91
  26.0833         92
  26.1019        106
  26.1205         77
  26.1390        103
  26.1576        104
  26.1762         92
  26.1948         88
  26.2133         85
  26.2319         92
  26.2505        107
  26.2691         86
  26.2876         99
  26.3062         97
  26.3248        103
  26.3434         96
  26.3619         90
  26.3805        102
  26.3991         94
  26.4177        103
  26.4362        100
  26.4548         97
  26.4734         87
  26.4920         93
  26.5105         85
  26.5291         95
  26.5477        100
  26.5663        115
  26.5848         98
  26.6034         79
  26.6220         96
  26.6406         81
  26.6591         97
  26.6777        102
  26.6963         82
  26.7149         80
  26.7335        111
  26.7520         70
  26.7706        100
  26.7892         86
  26.8078         92
  26.8263         87
  26.8449         99
  26.8635         78
  26.8821         87
  26.9006         89
  26.9192         86
  26.9378         98
  26.9564         83
  26.9749         89
  26.9935         89
  27.0121         87
  27.0307         81
  27.0492         98
  27.0678         93
  27.0864         81
  27.1050         96
  27.1235         95
  27.1421        111
  27.1607        120
  27.1793         98
  27.1978        123
  27.2164        114
  27.2350        100
  27.2536        101
  27.2721         90
  27.2907        111
  27.3093         87
  27.3279         98
  27.3464         84
  27.3650         90
  27.3836        105
  27.4022         94
  27.4207        102
  27.4393         91
  27.4579         93
  27.4765         95
  27.4951        100
  27.5136         97
  27.5322         68
  27.5508         74
  27.5694         80
  27.5879         77
  27.6065         70
  27.6251         77
  27.6437         88
  27.6622         81
  27.6808         97
  27.6994         93
  27.7180         81
  27.7365         78
  27.7551         99
  27.7737         80
  27.7923         78
  27.8108         93
  27.8294         80
  27.8480         81
  27.8666         74
  27.8851         76
  27.9037         89
  27.9223         82
  27.9409         86
  27.9594         79
  27.9780         77
  27.9966         89
  28.0152         75
  28.0337         85
  28.0523        100
  28.0709         81
  28.0895         78
  28.1080         77
  28.1266         83
  28.1452         64
  28.1638         94
  28.1823         86
  28.2009         82
  28.2195         94
  28.2381         78
  28.2567         82
  28.2752         85
  28.2938         90
  28.3124         81
  28.3310         94
  28.3495         76
  28.3681        104
  28.3867         86
  28.4053         59
  28.4238         91
  28.4424         98
  28.4610         82
  28.4796         93
  28.4981         70
  28.5167         84
  28.5353         89
  28.5539         82
  28.5724         85
  28.5910         66
  28.6096         74
  28.6282         77
  28.6467         58
  28.6653         72
  28.6839         86
  28.7025         88
  28.7210         85
  28.7396         81
  28.7582         88
  28.7768         88
  28.7953        102
  28.8139         93
  28.8325         84
  28.8511         82
  28.8696         75
  28.8882         87
  28.9068         74
  28.9254         74
  28.9439         85
  28.9625         79
  28.9811         75
  28.9997         68
  29.0183         66
  29.0368         75
  29.0554         90
  29.0740         69
  29.0926         84
  29.1111         78
  29.1297         86
  29.1483         93
  29.1669         87
  29.1854         92
  29.2040         71
  29.2226         70
  29.2412         90
  29.2597         84
  29.2783         74
  29.2969         92
  29.3155         66
  29.3340         93
  29.3526         83
  29.3712         90
  29.3898         67
  29.4083         78
  29.4269         74
  29.4455         82
  29.4641         78
  29.4826         78
  29.5012         68
  29.5198         73
  29.5384         84
  29.5569         84
  29.5755         83
  29.5941         65
  29.6127         72
  29.6312         73
  29.6498         80
  29.6684         92
  29.6870         62
  29.7055         68
  29.7241         76
  29.7427         76
  29.7613         78
  29.7799         78
  29.7984         75
  29.8170         85
  29.8356         72
  29.8542         75
  29.8727         62
  29.8913         80
  29.9099         64
  29.9285         67
  29.9470         64
  29.9656         65
  29.9842         76
  30.0028         78
  30.0213         86
  30.0399         76
  30.0585         81
  30.0771         86
  30.0956         86
  30.1142         71
  30.1328         85
  30.1514         71
  30.1699         84
  30.1885         68
  30.2071         91
  30.2257         83
  30.2442         73
  30.2628         86
  30.2814         81
  30.3000         84
  30.3185         91
  30.3371         93
  30.3557        145
  30.3743        152
  30.3928        172
  30.4114        127
  30.4300        104
  30.4486        108
  30.4671        110
  30.4857        108
  30.5043         85
  30.5229         78
  30.5415         94
  30.5600         78
  30.5786         73
  30.5972         64
  30.6158         70
  30.6343         65
  30.6529         80
  30.6715         84
  30.6901         80
  30.7086         71
  30.7272         67
  30.7458         62
  30.7644         72
  30.7829         69
  30.8015         71
  30.8201         73
  30.8387         75
  30.8572         74
  30.8758         84
  30.8944         68
  30.9130         79
  30.9315         56
  30.9501         68
  30.9687         86
  30.9873         77
  31.0058         79
  31.0244         63
  31.0430         70
  31.0616         72
  31.0801         70
  31.0987         77
  31.1173         62
  31.1359         72
  31.1544         53
  31.1730         75
  31.1916         57
  31.2102         59
  31.2287         68
  31.2473         60
  31.2659         67
  31.2845         71
  31.3030         63
  31.3216         69
  31.3402         70
  31.3588         56
  31.3774         63
  31.3959         63
  31.4145         62
  31.4331         54
  31.4517         74
  31.4702         71
  31.4888         74
  31.5074         63
  31.5260         80
  31.5445         63
  31.5631         76
  31.5817         75
  31.6003         72
  31.6188         65
  31.6374         70
  31.6560         64
  31.6746         76
  31.6931         56
  31.7117         60
  31.7303         67
  31.7489         81
  31.7674         73
  31.7860         80
  31.8046         60
  31.8232         74
  31.8417         63
  31.8603         71
  31.8789         62
  31.8975         70
  31.9160         60
  31.9346         62
  31.9532         66
  31.9718         67
  31.9903         57
  32.0089         64
  32.0275         58
  32.0461         72
  32.0646         74
  32.0832         60
  32.1018         71
  32.1204         52
  32.1390         57
  32.1575         59
  32.1761         50
  32.1947         64
  32.2133         64
  32.2318         62
  32.2504         77
  32.2690         56
  32.2876         70
  32.3061         65
  32.3247         65
  32.3433         64
  32.3619         65
  32.3804         53
  32.3990         75
  32.4176         69
  32.4362         66
  32.4547         86
  32.4733         65
  32.4919         66
  32.5105         56
  32.5290         67
  32.5476         72
  32.5662         62
  32.5848         67
  32.6033         64
  32.6219         62
  32.6405         63
  32.6591         61
  32.6776         60
  32.6962         49
  32.7148         71
  32.7334         70
  32.7519         58
  32.7705         63
  32.7891         57
  32.8077         58
  32.8262         60
  32.8448         55
  32.8634         52
  32.8820         59
  32.9006         63
  32.9191         60
  32.9377         66
  32.9563         57
  32.9749         60
  32.9934         74
  33.0120         55
  33.0306         57
  33.0492         57
  33.0677         63
  33.0863         53
  33.1049         64
  33.1235         57
  33.1420         68
  33.1606         61
  33.1792         66
  33.1978         52
  33.2163         58
  33.2349         56
  33.2535         63
  33.2721         54
  33.2906         65
  33.3092         55
  33.3278         66
  33.3464         54
  33.3649         50
  33.3835         72
  33.4021         60
  33.4207         71
  33.4392         56
  33.4578         61
  33.4764         60
  33.4950         46
  33.5135         56
  33.5321         68
  33.5507         63
  33.5693         51
  33.5878         68
  33.6064         59
  33.6250         57
  33.6436         42
  33.6622         53
  33.6807         60
  33.6993         59
  33.7179         54
  33.7365         46
  33.7550         52
  33.7736         59
  33.7922         44
  33.8108         69
  33.8293         49
  33.8479         47
  33.8665         65
  33.8851         61
  33.9036         49
  33.9222         56
  33.9408         54
  33.9594         62
  33.9779         56
  33.9965         53
  34.0151         48
  34.0337         47
  34.0522         58
  34.0708         54
  34.0894         52
  34.1080         52
  34.1265         69
  34.1451         53
  34.1637         49
  34.1823         58
  34.2008         51
  34.2194         53
  34.2380         64
  34.2566         60
  34.2751         57
  34.2937         64
  34.3123         64
  34.3309         55
  34.3494         58
  34.3680         41
  34.3866         49
  34.4052         53
  34.4238         56
  34.4423         42
  34.4609         59
  34.4795         54
  34.4981         49
  34.5166         49
  34.5352         51
  34.5538         73
  34.5724         61
  34.5909         67
  34.6095         62
  34.6281         59
  34.6467         69
  34.6652         64
  34.6838         66
  34.7024         65
  34.7210         73
  34.7395         76
  34.7581         71
  34.7767         91
  34.7953         78
  34.8138         89
  34.8324         48
  34.8510         76
  34.8696         62
  34.8881         73
  34.9067         67
  34.9253         64
  34.9439         57
  34.9624         47
  34.9810         56
  34.9996         57
  35.0182         40
  35.0367         48
  35.0553         44
  35.0739         58
  35.0925         60
  35.1110         55
  35.1296         37
  35.1482         61
  35.1668         59
  35.1854         59
  35.2039         60
  35.2225         48
  35.2411         35
  35.2597         35
  35.2782         44
  35.2968         41
  35.3154         56
  35.3340         47
  35.3525         55
  35.3711         55
  35.3897         48
  35.4083         44
  35.4268         54
  35.4454         54
  35.4640         43
  35.4826         40
  35.5011         50
  35.5197         46
  35.5383         61
  35.5569         68
  35.5754         60
  35.5940         50
  35.6126         37
  35.6312         36
  35.6497         57
  35.6683         51
  35.6869         39
  35.7055         53
  35.7240         60
  35.7426         40
  35.7612         46
  35.7798         40
  35.7983         54
  35.8169         49
  35.8355         44
  35.8541         50
  35.8726         50
  35.8912         66
  35.9098         48
  35.9284         42
  35.9469         40
  35.9655         36
  35.9841         39
  36.0027         39
  36.0213         57
  36.0398         54
  36.0584         55
  36.0770         44
  36.0956         43
  36.1141         54
  36.1327         62
  36.1513         48
  36.1699         48
  36.1884         49
  36.2070         48
  36.2256         47
  36.2442         60
  36.2627         54
  36.2813         46
  36.2999         47
  36.3185         48
  36.3370         47
  36.3556         65
  36.3742         52
  36.3928         47
  36.4113         48
  36.4299         59
  36.4485         39
  36.4671         46
  36.4856         32
  36.5042         48
  36.5228         45
  36.5414         56
  36.5599         37
  36.5785         39
  36.5971         43
  36.6157         54
  36.6342         45
  36.6528         39
  36.6714         37
  36.6900         44
  36.7085         63
  36.7271         42
  36.7457         38
  36.7643         42
  36.7829         54
  36.8014         42
  36.8200         44
  36.8386         45
  36.8572         35
  36.8757         48
  36.8943         50
  36.9129         52
  36.9315         40
  36.9500         40
  36.9686         58
  36.9872         34
  37.0058         43
  37.0243         51
  37.0429         51
  37.0615         43
  37.0801         41
  37.0986         50
  37.1172         35
  37.1358         49
  37.1544         56
  37.1729         45
  37.1915         66
  37.2101         47
  37.2287         41
  37.2472         55
  37.2658         42
  37.2844         50
  37.3030         50
  37.3215         64
  37.3401         44
  37.3587         54
  37.3773         74
  37.3958         50
  37.4144         59
  37.4330         85
  37.4516         66
  37.4701         67
  37.4887         55
  37.5073         54
  37.5259         60
  37.5445         54
  37.5630         48
  37.5816         61
  37.6002         42
  37.6188         51
  37.6373         47
  37.6559         59
  37.6745         42
  37.6931         45
  37.7116         42
  37.7302         56
  37.7488         38
  37.7674         49
  37.7859         45
  37.8045         46
  37.8231         50
  37.8417         37
  37.8602         45
  37.8788         56
  37.8974         44
  37.9160         38
  37.9345         38
  37.9531         37
  37.9717         37
  37.9903         49
  38.0088         46
  38.0274         49
  38.0460         40
  38.0646         32
  38.0831         49
  38.1017         33
  38.1203         39
  38.1389         37
  38.1574         40
  38.1760         40
  38.1946         44
  38.2132         43
  38.2317         33
  38.2503         46
  38.2689         36
  38.2875         40
  38.3061         49
  38.3246         42
  38.3432         44
  38.3618         38
  38.3804         43
  38.3989         45
  38.4175         41
  38.4361         36
  38.4547         42
  38.4732         37
  38.4918         45
  38.5104         36
  38.5290         38
  38.5475         41
  38.5661         47
  38.5847         31
  38.6033         52
  38.6218         55
  38.6404         33
  38.6590         42
  38.6776         42
  38.6961         38
  38.7147         36
  38.7333         43
  38.7519         36
  38.7704         41
  38.7890         38
  38.8076         48
  38.8262         38
  38.8447         32
  38.8633         32
  38.8819         39
  38.9005         51
  38.9190         35
  38.9376         37
  38.9562         50
  38.9748         45
  38.9933         40
  39.0119         46
  39.0305         43
  39.0491         34
  39.0677         41
  39.0862         36
  39.1048         38
  39.1234         42
  39.1420         39
  39.1605         40
  39.1791         36
  39.1977         41
  39.2163         38
  39.2348         40
  39.2534         38
  39.2720         33
  39.2906         41
  39.3091         33
  39.3277         39
  39.3463         51
  39.3649         44
  39.3834         31
  39.4020         42
  39.4206         37
  39.4392         41
  39.4577         42
  39.4763         44
  39.4949         37
  39.5135         42
  39.5320         35
  39.5506         34
  39.5692         36
  39.5878         32
  39.6063         44
  39.6249         36
  39.6435         38
  39.6621         27
  39.6806         33
  39.6992         48
  39.7178         34
  39.7364         44
  39.7549         34
  39.7735         45
  39.7921         37
  39.8107         34
  39.8293         37
  39.8478         47
  39.8664         43
  39.8850         41
  39.9036         43
  39.9221         45
  39.9407         37
  39.9593         39
  39.9779         35
  39.9964         32
  40.0150         36
  40.0336         46
  40.0522         39
  40.0707         42
  40.0893         33
  40.1079         26
  40.1265         45
  40.1450         41
  40.1636         36
  40.1822         44
  40.2008         31
  40.2193         52
  40.2379         42
  40.2565         34
  40.2751         33
  40.2936         35
  40.3122         46
  40.3308         39
  40.3494         42
  40.3679         40
  40.3865         38
  40.4051         33
  40.4237         32
  40.4422         39
  40.4608         44
  40.4794         35
  40.4980         38
  40.5165         31
  40.5351         41
  40.5537         35
  40.5723         35
  40.5908         34
  40.6094         40
  40.6280         38
  40.6466         38
  40.6652         47
  40.6837         38
  40.7023         27
  40.7209         33
  40.7395         36
  40.7580         30
  40.7766         43
  40.7952         38
  40.8138         34
  40.8323         38
  40.8509         28
  40.8695         44
  40.8881         33
  40.9066         37
  40.9252         32
  40.9438         40
  40.9624         42
  40.9809         37
  40.9995         38
  41.0181         35
  41.0367         36
  41.0552         46
  41.0738         37
  41.0924         36
  41.1110         50
  41.1295         31
  41.1481         33
  41.1667         36
  41.1853         45
  41.2038         44
  41.2224         46
  41.2410         38
  41.2596         38
  41.2781         26
  41.2967         32
  41.3153         34
  41.3339         38
  41.3524         34
  41.3710         34
  41.3896         27
  41.4082         34
  41.4268         45
  41.4453         41
  41.4639         46
  41.4825         34
  41.5011         38
  41.5196         50
  41.5382         37
  41.5568         40
  41.5754         38
  41.5939         30
  41.6125         38
  41.6311         42
  41.6497         46
  41.6682         36
  41.6868         43
  41.7054         39
  41.7240         49
  41.7425         35
  41.7611         46
  41.7797         26
  41.7983         40
  41.8168         47
  41.8354         36
  41.8540         53
  41.8726         27
  41.8911         34
  41.9097         48
  41.9283         33
  41.9469         42
  41.9654         30
  41.9840         39
  42.0026         35
  42.0212         37
  42.0397         30
  42.0583         30
  42.0769         35
  42.0955         32
  42.1140         31
  42.1326         33
  42.1512         29
  42.1698         34
  42.1884         35
  42.2069         33
  42.2255         33
  42.2441         37
  42.2627         32
  42.2812         29
  42.2998         31
  42.3184         31
  42.3370         37
  42.3555         38
  42.3741         33
  42.3927         31
  42.4113         39
  42.4298         36
  42.4484         37
  42.4670         38
  42.4856         27
  42.5041         37
  42.5227         35
  42.5413         39
  42.5599         42
  42.5784         37
  42.5970         33
  42.6156         32
  42.6342         38
  42.6527         31
  42.6713         38
  42.6899         43
  42.7085         35
  42.7270         36
  42.7456         35
  42.7642         38
  42.7828         43
  42.8013         32
  42.8199         40
  42.8385         36
  42.8571         33
  42.8756         34
  42.8942         40
  42.9128         28
  42.9314         37
  42.9500         29
  42.9685         41
  42.9871         38
  43.0057         38
  43.0243         47
  43.0428         27
  43.0614         53
  43.0800         32
  43.0986         35
  43.1171         37
  43.1357         31
  43.1543         47
  43.1729         45
  43.1914         53
  43.2100         43
  43.2286         48
  43.2472         40
  43.2657         35
  43.2843         35
  43.3029         48
  43.3215         46
  43.3400         42
  43.3586         35
  43.3772         48
  43.3958         36
  43.4143         31
  43.4329         54
  43.4515         46
  43.4701         36
  43.4886         48
  43.5072         75
  43.5258         56
  43.5444         50
  43.5629         39
  43.5815         50
  43.6001         37
  43.6187         52
  43.6372         50
  43.6558         38
  43.6744         34
  43.6930         41
  43.7116         32
  43.7301         30
  43.7487         40
  43.7673         33
  43.7859         36
  43.8044         43
  43.8230         33
  43.8416         50
  43.8602         34
  43.8787         43
  43.8973         37
  43.9159         29
  43.9345         43
  43.9530         36
  43.9716         30
  43.9902         34
  44.0088         35
  44.0273         27
  44.0459         49
  44.0645         50
  44.0831         35
  44.1016         31
  44.1202         36
  44.1388         31
  44.1574         41
  44.1759         36
  44.1945         34
  44.2131         31
  44.2317         38
  44.2502         33
  44.2688         42
  44.2874         51
  44.3060         34
  44.3245         45
  44.3431         36
  44.3617         35
  44.3803         28
  44.3988         27
  44.4174         36
  44.4360         30
  44.4546         41
  44.4732         43
  44.4917         40
  44.5103         37
  44.5289         36
  44.5475         40
  44.5660         37
  44.5846         44
  44.6032         41
  44.6218         38
  44.6403         41
  44.6589         35
  44.6775         40
  44.6961         42
  44.7146         48
  44.7332         40
  44.7518         42
  44.7704         32
  44.7889         41
  44.8075         35
  44.8261         36
  44.8447         34
  44.8632         41
  44.8818         47
  44.9004         39
  44.9190         44
  44.9375         37
  44.9561         35
  44.9747         40
  44.9933         39
  45.0118         35
  45.0304         28
  45.0490         32
  45.0676         33
  45.0861         34
  45.1047         29
  45.1233         37
  45.1419         33
  45.1604         31
  45.1790         35
  45.1976         34
  45.2162         27
  45.2347         30
  45.2533         40
  45.2719         25
  45.2905         26
  45.3091         32
  45.3276         28
  45.3462         34
  45.3648         35
  45.3834         30
  45.4019         35
  45.4205         35
  45.4391         44
  45.4577         32
  45.4762         36
  45.4948         34
  45.5134         34
  45.5320         34
  45.5505         22
  45.5691         32
  45.5877         31
  45.6063         37
  45.6248         19
  45.6434         42
  45.6620         31
  45.6806         32
  45.6991         24
  45.7177         20
  45.7363         34
  45.7549         42
  45.7734         34
  45.7920         27
  45.8106         28
  45.8292         30
  45.8477         38
  45.8663         24
  45.8849         34
  45.9035         28
  45.9220         33
  45.9406         28
  45.9592         31
  45.9778         32
  45.9963         46
  46.0149         21
  46.0335         40
  46.0521         31
  46.0707         35
  46.0892         32
  46.1078         32
  46.1264         32
  46.1450         31
  46.1635         27
  46.1821         27
  46.2007         41
  46.2193         34
  46.2378         31
  46.2564         25
  46.2750         26
  46.2936         26
  46.3121         31
  46.3307         30
  46.3493         37
  46.3679         31
  46.3864         46
  46.4050         30
  46.4236         32
  46.4422         28
  46.4607         40
  46.4793         37
  46.4979         39
  46.5165         27
  46.5350         27
  46.5536         39
  46.5722         28
  46.5908         34
  46.6093         33
  46.6279         41
  46.6465         34
  46.6651         30
  46.6836         30
  46.7022         39
  46.7208         28
  46.7394         33
  46.7579         38
  46.7765         27
  46.7951         30
  46.8137         37
  46.8323         37
  46.8508         25
  46.8694         39
  46.8880         31
  46.9066         45
  46.9251         31
  46.9437         27
  46.9623         26
  46.9809         31
  46.9994         45
  47.0180         37
  47.0366         29
  47.0552         30
  47.0737         28
  47.0923         39
  47.1109         25
  47.1295         24
  47.1480         33
  47.1666         33
  47.1852         19
  47.2038         37
  47.2223         39
  47.2409         35
  47.2595         24
  47.2781         30
  47.2966         25
  47.3152         31
  47.3338         35
  47.3524         35
  47.3709         36
  47.3895         31
  47.4081         20
  47.4267         27
  47.4452         27
  47.4638         32
  47.4824         33
  47.5010         43
  47.5195         23
  47.5381         38
  47.5567         33
  47.5753         27
  47.5939         38
  47.6124         42
  47.6310         26
  47.6496         27
  47.6682         32
  47.6867         29
  47.7053         37
  47.7239         19
  47.7425         32
  47.7610         33
  47.7796         25
  47.7982         28
  47.8168         32
  47.8353         31
  47.8539         32
  47.8725         33
  47.8911         20
  47.9096         30
  47.9282         31
  47.9468         29
  47.9654         29
  47.9839         31
  48.0025         35
  48.0211         38
  48.0397         30
  48.0582         33
  48.0768         24
  48.0954         31
  48.1140         31
  48.1325         26
  48.1511         23
  48.1697         35
  48.1883         28
  48.2068         32
  48.2254         33
  48.2440         31
  48.2626         25
  48.2811         23
  48.2997         32
  48.3183         25
  48.3369         31
  48.3555         28
  48.3740         19
  48.3926         31
  48.4112         38
  48.4298         29
  48.4483         35
  48.4669         31
  48.4855         30
  48.5041         42
  48.5226         34
  48.5412         34
  48.5598         31
  48.5784         28
  48.5969         26
  48.6155         29
  48.6341         29
  48.6527         35
  48.6712         26
  48.6898         30
  48.7084         39
  48.7270         31
  48.7455         32
  48.7641         23
  48.7827         25
  48.8013         34
  48.8198         29
  48.8384         42
  48.8570         35
  48.8756         39
  48.8941         33
  48.9127         39
  48.9313         42
  48.9499         63
  48.9684         60
  48.9870         44
  49.0056         43
  49.0242         37
  49.0427         40
  49.0613         41
  49.0799         40
  49.0985         42
  49.1171         44
  49.1356         41
  49.1542         36
  49.1728         42
  49.1914         31
  49.2099         26
  49.2285         27
  49.2471         43
  49.2657         26
  49.2842         21
  49.3028         32
  49.3214         30
  49.3400         35
  49.3585         28
  49.3771         27
  49.3957         25
  49.4143         25
  49.4328         30
  49.4514         36
  49.4700         29
  49.4886         28
  49.5071         23
  49.5257         28
  49.5443         25
  49.5629         33
  49.5814         30
  49.6000         31
  49.6186         25
  49.6372         29
  49.6557         26
  49.6743         33
  49.6929         27
  49.7115         26
  49.7300         29
  49.7486         29
  49.7672         21
  49.7858         28
  49.8043         31
  49.8229         30
  49.8415         31
  49.8601         26
  49.8786         22
  49.8972         29
  49.9158         36
  49.9344         22
  49.9530         34
  49.9715         31
  49.9901         21
  50.0087         29
  50.0273         32
  50.0458         23
  50.0644         33
  50.0830         26
  50.1016         39
  50.1201         26
  50.1387         29
  50.1573         33
  50.1759         30
  50.1944         40
  50.2130         40
  50.2316         35
  50.2502         22
  50.2687         35
  50.2873         31
  50.3059         31
  50.3245         38
  50.3430         30
  50.3616         28
  50.3802         35
  50.3988         20
  50.4173         35
  50.4359         26
  50.4545         22
  50.4731         30
  50.4916         25
  50.5102         38
  50.5288         31
  50.5474         29
  50.5659         22
  50.5845         30
  50.6031         37
  50.6217         29
  50.6402         27
  50.6588         24
  50.6774         24
  50.6960         31
  50.7146         29
  50.7331         25
  50.7517         29
  50.7703         31
  50.7889         29
  50.8074         36
  50.8260         45
  50.8446         22
  50.8632         28
  50.8817         24
  50.9003         31
  50.9189         34
  50.9375         33
  50.9560         36
  50.9746         36
  50.9932         27
  51.0118         38
  51.0303         36
  51.0489         25
  51.0675         24
  51.0861         37
  51.1046         38
  51.1232         25
  51.1418         26
  51.1604         33
  51.1789         25
  51.1975         29
  51.2161         29
  51.2347         24
  51.2532         23
  51.2718         24
  51.2904         37
  51.3090         27
  51.3275         29
  51.3461         34
  51.3647         20
  51.3833         24
  51.4018         39
  51.4204         39
  51.4390         40
  51.4576         38
  51.4762         36
  51.4947         34
  51.5133         38
  51.5319         38
  51.5505         24
  51.5690         32
  51.5876         33
  51.6062         36
  51.6248         26
  51.6433         32
  51.6619         31
  51.6805         27
  51.6991         31
  51.7176         36
  51.7362         30
  51.7548         29
  51.7734         27
  51.7919         29
  51.8105         24
  51.8291         33
  51.8477         35
  51.8662         33
  51.8848         28
  51.9034         32
  51.9220         27
  51.9405         32
  51.9591         29
  51.9777         21
  51.9963         44
  52.0148         28
  52.0334         38
  52.0520         28
  52.0706         34
  52.0891         30
  52.1077         31
  52.1263         30
  52.1449         28
  52.1634         21
  52.1820         20
  52.2006         36
  52.2192         25
  52.2378         26
  52.2563         29
  52.2749         28
  52.2935         29
  52.3121         31
  52.3306         36
  52.3492         31
  52.3678         21
  52.3864         26
  52.4049         23
  52.4235         31
  52.4421         27
  52.4607         26
  52.4792         25
  52.4978         34
  52.5164         33
  52.5350         36
  52.5535         27
  52.5721         32
  52.5907         31
  52.6093         29
  52.6278         25
  52.6464         32
  52.6650         31
  52.6836         36
  52.7021         31
  52.7207         22
  52.7393         22
  52.7579         32
  52.7764         21
  52.7950         29
  52.8136         30
  52.8322         42
  52.8507         29
  52.8693         25
  52.8879         24
  52.9065         27
  52.9250         36
  52.9436         27
  52.9622         31
  52.9808         31
  52.9994         33
  53.0179         29
  53.0365         27
  53.0551         35
  53.0737         27
  53.0922         34
  53.1108         35
  53.1294         27
  53.1480         36
  53.1665         31
  53.1851         27
  53.2037         28
  53.2223         28
  53.2408         31
  53.2594         38
  53.2780         35
  53.2966         29
  53.3151         23
  53.3337         21
  53.3523         32
  53.3709         24
  53.3894         28
  53.4080         29
  53.4266         28
  53.4452         31
  53.4637         16
  53.4823         27
  53.5009         21
  53.5195         17
  53.5380         27
  53.5566         15
  53.5752         28
  53.5938         26
  53.6123         31
  53.6309         26
  53.6495         23
  53.6681         36
  53.6866         30
  53.7052         26
  53.7238         25
  53.7424         34
  53.7610         25
  53.7795         37
  53.7981         23
  53.8167         25
  53.8353         27
  53.8538         34
  53.8724         22
  53.8910         30
  53.9096         29
  53.9281         29
  53.9467         34
  53.9653         43
  53.9839         32
  54.0024         37
  54.0210         35
  54.0396         27
  54.0582         21
  54.0767         33
  54.0953         26
  54.1139         29
  54.1325         38
  54.1510         42
  54.1696         30
  54.1882         17
  54.2068         37
  54.2253         26
  54.2439         23
  54.2625         32
  54.2811         30
  54.2996         35
  54.3182         20
  54.3368         33
  54.3554         29
  54.3739         20
  54.3925         27
  54.4111         29
  54.4297         30
  54.4482         28
  54.4668         23
  54.4854         34
  54.5040         28
  54.5225         38
  54.5411         29
  54.5597         39
  54.5783         25
  54.5969         29
  54.6154         30
  54.6340         24
  54.6526         30
  54.6712         24
  54.6897         29
  54.7083         33
  54.7269         26
  54.7455         35
  54.7640         27
  54.7826         23
  54.8012         28
  54.8198         35
  54.8383         27
  54.8569         30
  54.8755         24
  54.8941         27
  54.9126         34
  54.9312         28
  54.9498         18
  54.9684         29
  54.9869         28
  55.0055         22
  55.0241         29
  55.0427         26
  55.0612         29
  55.0798         27
  55.0984         25
  55.1170         27
  55.1355         25
  55.1541         31
  55.1727         38
  55.1913         27
  55.2098         29
  55.2284         28
  55.2470         25
  55.2656         25
  55.2841         24
  55.3027         35
  55.3213         26
  55.3399         28
  55.3585         31
  55.3770         24
  55.3956         25
  55.4142         29
  55.4328         34
  55.4513         35
  55.4699         32
  55.4885         33
  55.5071         31
  55.5256         26
  55.5442         30
  55.5628         28
  55.5814         38
  55.5999         28
  55.6185         27
  55.6371         26
  55.6557         27
  55.6742         26
  55.6928         25
  55.7114         24
  55.7300         28
  55.7485         32
  55.7671         28
  55.7857         33
  55.8043         33
  55.8228         23
  55.8414         26
  55.8600         21
  55.8786         27
  55.8971         21
  55.9157         24
  55.9343         25
  55.9529         23
  55.9714         17
  55.9900         36
  56.0086         38
  56.0272         29
  56.0457         34
  56.0643         23
  56.0829         30
  56.1015         27
  56.1201         23
  56.1386         33
  56.1572         40
  56.1758         35
  56.1944         31
  56.2129         31
  56.2315         29
  56.2501         36
  56.2687         29
  56.2872         24
  56.3058         30
  56.3244         36
  56.3430         28
  56.3615         36
  56.3801         20
  56.3987         30
  56.4173         31
  56.4358         22
  56.4544         30
  56.4730         29
  56.4916         32
  56.5101         30
  56.5287         32
  56.5473         23
  56.5659         26
  56.5844         34
  56.6030         44
  56.6216         36
  56.6402         27
  56.6587         23
  56.6773         29
  56.6959         26
  56.7145         35
  56.7330         29
  56.7516         33
  56.7702         27
  56.7888         28
  56.8073         25
  56.8259         28
  56.8445         30
  56.8631         28
  56.8817         24
  56.9002         36
  56.9188         25
  56.9374         26
  56.9560         22
  56.9745         25
  56.9931         28
  57.0117         27
  57.0303         36
  57.0488         24
  57.0674         29
  57.0860         24
  57.1046         38
  57.1231         34
  57.1417         28
  57.1603         29
  57.1789         29
  57.1974         31
  57.2160         25
  57.2346         38
  57.2532         36
  57.2717         22
  57.2903         25
  57.3089         25
  57.3275         21
  57.3460         24
  57.3646         40
  57.3832         30
  57.4018         34
  57.4203         32
  57.4389         24
  57.4575         23
  57.4761         29
  57.4946         25
  57.5132         32
  57.5318         24
  57.5504         31
  57.5689         19
  57.5875         36
  57.6061         22
  57.6247         28
  57.6433         25
  57.6618         39
  57.6804         26
  57.6990         31
  57.7176         26
  57.7361         29
  57.7547         31
  57.7733         23
  57.7919         31
  57.8104         22
  57.8290         36
  57.8476         30
  57.8662         23
  57.8847         35
  57.9033         32
  57.9219         42
  57.9405         29
  57.9590         21
  57.9776         33
  57.9962         33
  58.0148         23
  58.0333         29
  58.0519         22
  58.0705         28
  58.0891         36
  58.1076         23
  58.1262         25
  58.1448         22
  58.1634         30
  58.1819         25
  58.2005         22
  58.2191         30
  58.2377         31
  58.2562         19
  58.2748         32
  58.2934         34
  58.3120         29
  58.3305         24
  58.3491         21
  58.3677         26
  58.3863         27
  58.4049         20
  58.4234         19
  58.4420         25
  58.4606         23
  58.4792         32
  58.4977         29
  58.5163         26
  58.5349         33
  58.5535         27
  58.5720         23
  58.5906         23
  58.6092         30
  58.6278         25
  58.6463         25
  58.6649         30
  58.6835         26
  58.7021         27
  58.7206         29
  58.7392         21
  58.7578         29
  58.7764         27
  58.7949         27
  58.8135         25
  58.8321         23
  58.8507         19
  58.8692         28
  58.8878         29
  58.9064         23
  58.9250         17
  58.9435         32
  58.9621         31
  58.9807         27
  58.9993         28
  59.0178         37
  59.0364         18
  59.0550         29
  59.0736         31
  59.0921         35
  59.1107         35
  59.1293         30
  59.1479         26
  59.1664         26
  59.1850         26
  59.2036         23
  59.2222         23
  59.2408         23
  59.2593         33
  59.2779         40
  59.2965         25
  59.3151         32
  59.3336         31
  59.3522         29
  59.3708         29
  59.3894         23
  59.4079         18
  59.4265         35
  59.4451         26
  59.4637         36
  59.4822         23
  59.5008         33
  59.5194         29
  59.5380         39
  59.5565         26
  59.5751         26
  59.5937         23
  59.6123         22
  59.6308         29
  59.6494         26
  59.6680         23
  59.6866         24
  59.7051         31
  59.7237         30
  59.7423         35
  59.7609         23
  59.7794         28
  59.7980         35
  59.8166         31
  59.8352         29
  59.8537         26
  59.8723         22
  59.8909         18
  59.9095         28
  59.9280         35
  59.9466         37
  59.9652         22
  59.9838         35
  60.0024         33
