; (content of file Y:\Sam\Apurva-07-20-2022\puck2\ML_20220720_15_SJD_0_LaB6-1min.raw)
_FILEVERSION = 3
_SAMPLE = ML_20220720_15_SJD_0_LaB6-1mi
_+SAMPLE = 
_SITE = USA
_USER = Administrator
_GONIOMETER_CODE = 20
; Goniometer : D8 theta/2theta, stage : Unknown
_ATTACHMENTS_CODE = 0
_GONIOMETER_RADIUS = 200.5
_FIXED_DIVSLIT = 0.6
_FIXED_SAMPLESLIT = 0
_SOLLER_SLITS = 2
_FIXED_DETSLIT = 9.55
_MONOCHROMATOR = 0
; Incident beam monochromator : None
_SOLLER_SLITS_2 = N
_THIN_FILM = N
_BETA_FILTER = Y
_FIXED_ANTISLIT = 5.89
_ANALYZER_CODE = 0
; Received beam analyzer : None
_DATEMEASURED = "25-Jul-2022 18:14:18"
_WL_UNIT = A
_WL1 = 1.5406
_WL2 = 1.54439
_WL3 = 1.39222
_WLRATIO = 0.5
_ANODE = Cu
_V4_INF_CREATOR = XRDWizard
_V4_INF_CREATOR_VERSION = V2.9.0.22
_V4_INF_WIZARD_VERSION = V2.9.0.22
_V4_INF_WIZARD_ADDINS = V2.9.0.22
_V4_INF_WIZARD_DOCTYPE = XRD
_V4_INF_OSUSER = McQueenLab
_V4_INF_USER = Administrator
_V4_INF_SITE = USA
_V4_INF_SAMPLEID = ML_20220720_15_SJD_0_LaB6-1mi

; Data for range 1
_DRIVE = COUPLED
_STEPTIME = 4.23
_STEPSIZE = 0.0185756
_STEPMODE = C
_START = 5
_THETA = 2.5
_2THETA = 5
_KHI = 0
_PHI = 0
_X = 0
_Y = 0
_Z = 0
_DETECTOR = 5
; Detector type : Unknown
_DETECTORSLIT = unkn
_AUX1 = 0
_AUX2 = 0
_AUX3 = 0
_TIMESTARTED = 16
_TEMP_RATE = -1
_TEMP_DELAY = -1
_KV = 40
_MA = 40
_RANGE_WL = 1.5406
_3DPLANE = 0
_V4_ADDITIONALDETECTOR = 257
_V4_PSD2THETA = 3.4436
_V4_PSDCHANNEL1 = 0
_V4_PSDAPERTURE = 12.68
_V4_PSDTYPE = 5
_V4_PSDFIXED = 0
_V4_COUNTERS_MASK = 4096
_V4_DRIVES_MASK = 0
_V4_ENCODERS_MASK = 0
_2THETACOUNTS = 1
; 2THETA  PSD
   5.0000         83
   5.0186        115
   5.0372         96
   5.0557        103
   5.0743         89
   5.0929        100
   5.1115        108
   5.1300        103
   5.1486        113
   5.1672         83
   5.1858        109
   5.2043         94
   5.2229        109
   5.2415         87
   5.2601         87
   5.2786         86
   5.2972        102
   5.3158         84
   5.3344         97
   5.3529         90
   5.3715         85
   5.3901         81
   5.4087         78
   5.4272         97
   5.4458         93
   5.4644         87
   5.4830         81
   5.5015         82
   5.5201         75
   5.5387         94
   5.5573         73
   5.5758         98
   5.5944         68
   5.6130         81
   5.6316         63
   5.6501         87
   5.6687         75
   5.6873         78
   5.7059         74
   5.7244         89
   5.7430         85
   5.7616         70
   5.7802         67
   5.7988         70
   5.8173         78
   5.8359         72
   5.8545         81
   5.8731         73
   5.8916         70
   5.9102         81
   5.9288         69
   5.9474         88
   5.9659         76
   5.9845         87
   6.0031         76
   6.0217         77
   6.0402         82
   6.0588         59
   6.0774         69
   6.0960         77
   6.1145         81
   6.1331         63
   6.1517         63
   6.1703         74
   6.1888         67
   6.2074         69
   6.2260         62
   6.2446         65
   6.2631         72
   6.2817         72
   6.3003         57
   6.3189         68
   6.3374         74
   6.3560         68
   6.3746         73
   6.3932         62
   6.4117         64
   6.4303         69
   6.4489         71
   6.4675         70
   6.4860         48
   6.5046         68
   6.5232         70
   6.5418         58
   6.5604         52
   6.5789         63
   6.5975         68
   6.6161         71
   6.6347         70
   6.6532         64
   6.6718         60
   6.6904         61
   6.7090         70
   6.7275         58
   6.7461         57
   6.7647         54
   6.7833         45
   6.8018         59
   6.8204         53
   6.8390         65
   6.8576         50
   6.8761         61
   6.8947         64
   6.9133         55
   6.9319         61
   6.9504         71
   6.9690         61
   6.9876         46
   7.0062         58
   7.0247         54
   7.0433         64
   7.0619         58
   7.0805         70
   7.0990         49
   7.1176         59
   7.1362         50
   7.1548         54
   7.1733         51
   7.1919         58
   7.2105         61
   7.2291         62
   7.2476         65
   7.2662         56
   7.2848         56
   7.3034         60
   7.3220         75
   7.3405         59
   7.3591         57
   7.3777         66
   7.3963         54
   7.4148         66
   7.4334         66
   7.4520         73
   7.4706         61
   7.4891         64
   7.5077         54
   7.5263         67
   7.5449         78
   7.5634         63
   7.5820         54
   7.6006         62
   7.6192         75
   7.6377         78
   7.6563         81
   7.6749         84
   7.6935         71
   7.7120         70
   7.7306         73
   7.7492         51
   7.7678         57
   7.7863         62
   7.8049         74
   7.8235         63
   7.8421         73
   7.8606         61
   7.8792         86
   7.8978         63
   7.9164         82
   7.9349         54
   7.9535         69
   7.9721         65
   7.9907         62
   8.0092         73
   8.0278         57
   8.0464         63
   8.0650         84
   8.0835         67
   8.1021         71
   8.1207         66
   8.1393         73
   8.1579         87
   8.1764         73
   8.1950         66
   8.2136         64
   8.2322         73
   8.2507         75
   8.2693         77
   8.2879         73
   8.3065         63
   8.3250         79
   8.3436         77
   8.3622         61
   8.3808         65
   8.3993         83
   8.4179         77
   8.4365         59
   8.4551         62
   8.4736         81
   8.4922         74
   8.5108         78
   8.5294         78
   8.5479         80
   8.5665         73
   8.5851         92
   8.6037         69
   8.6222         89
   8.6408         79
   8.6594         67
   8.6780         75
   8.6965         70
   8.7151         54
   8.7337         80
   8.7523         90
   8.7708         70
   8.7894         77
   8.8080         81
   8.8266         54
   8.8451         77
   8.8637         79
   8.8823         86
   8.9009         76
   8.9195         67
   8.9380         64
   8.9566         89
   8.9752         85
   8.9938         85
   9.0123         76
   9.0309         64
   9.0495         85
   9.0681         85
   9.0866         80
   9.1052         80
   9.1238         73
   9.1424         85
   9.1609         79
   9.1795         67
   9.1981         73
   9.2167         96
   9.2352         66
   9.2538         79
   9.2724         86
   9.2910         86
   9.3095         85
   9.3281         72
   9.3467         94
   9.3653         77
   9.3838         68
   9.4024         83
   9.4210         80
   9.4396         69
   9.4581         92
   9.4767         81
   9.4953         85
   9.5139         76
   9.5324         89
   9.5510         80
   9.5696         91
   9.5882         88
   9.6067         74
   9.6253         84
   9.6439         85
   9.6625         78
   9.6811         89
   9.6996         72
   9.7182         76
   9.7368         77
   9.7554         81
   9.7739         74
   9.7925         85
   9.8111         92
   9.8297        100
   9.8482         73
   9.8668        104
   9.8854         60
   9.9040        102
   9.9225         88
   9.9411         81
   9.9597         89
   9.9783         92
   9.9968         71
  10.0154        102
  10.0340         97
  10.0526         96
  10.0711         79
  10.0897        101
  10.1083         82
  10.1269         88
  10.1454         99
  10.1640        101
  10.1826         87
  10.2012         93
  10.2197        107
  10.2383         96
  10.2569         95
  10.2755         81
  10.2940        111
  10.3126         79
  10.3312         93
  10.3498         95
  10.3683         86
  10.3869         97
  10.4055        101
  10.4241         94
  10.4427         86
  10.4612         83
  10.4798         90
  10.4984         84
  10.5170        101
  10.5355         88
  10.5541         89
  10.5727         95
  10.5913         97
  10.6098        111
  10.6284         77
  10.6470         87
  10.6656        103
  10.6841         73
  10.7027         83
  10.7213         96
  10.7399         84
  10.7584         81
  10.7770         96
  10.7956        123
  10.8142        100
  10.8327         98
  10.8513         81
  10.8699        105
  10.8885         76
  10.9070         93
  10.9256         96
  10.9442         67
  10.9628         87
  10.9813         76
  10.9999         77
  11.0185         94
  11.0371         95
  11.0556         85
  11.0742         98
  11.0928         84
  11.1114         96
  11.1299         98
  11.1485         67
  11.1671         85
  11.1857         99
  11.2043         88
  11.2228        101
  11.2414         76
  11.2600         65
  11.2786         84
  11.2971         72
  11.3157         79
  11.3343         85
  11.3529         88
  11.3714         87
  11.3900         91
  11.4086         92
  11.4272         76
  11.4457         86
  11.4643        102
  11.4829         70
  11.5015        101
  11.5200         90
  11.5386         78
  11.5572         76
  11.5758         86
  11.5943         73
  11.6129         91
  11.6315         89
  11.6501        103
  11.6686        102
  11.6872         88
  11.7058         87
  11.7244         66
  11.7429         88
  11.7615        101
  11.7801         86
  11.7987         89
  11.8172         85
  11.8358         86
  11.8544         76
  11.8730         79
  11.8915         75
  11.9101         73
  11.9287         97
  11.9473         91
  11.9659         69
  11.9844         75
  12.0030         82
  12.0216         97
  12.0402         97
  12.0587         72
  12.0773         89
  12.0959         75
  12.1145         80
  12.1330        105
  12.1516         82
  12.1702         88
  12.1888         83
  12.2073         90
  12.2259         74
  12.2445         88
  12.2631         89
  12.2816         87
  12.3002         89
  12.3188         87
  12.3374         82
  12.3559         84
  12.3745         86
  12.3931         92
  12.4117        101
  12.4302         87
  12.4488         86
  12.4674         77
  12.4860         83
  12.5045         79
  12.5231         80
  12.5417         73
  12.5603         80
  12.5788         93
  12.5974         81
  12.6160         83
  12.6346         64
  12.6531         71
  12.6717         79
  12.6903         91
  12.7089         74
  12.7274         72
  12.7460         62
  12.7646         70
  12.7832         72
  12.8018         92
  12.8203         67
  12.8389         85
  12.8575         87
  12.8761         83
  12.8946         73
  12.9132         79
  12.9318         63
  12.9504         66
  12.9689         78
  12.9875         88
  13.0061         69
  13.0247         74
  13.0432         78
  13.0618         78
  13.0804         74
  13.0990         75
  13.1175         75
  13.1361         76
  13.1547         59
  13.1733         64
  13.1918         81
  13.2104         49
  13.2290         66
  13.2476         69
  13.2661         61
  13.2847         78
  13.3033         75
  13.3219         76
  13.3404         87
  13.3590         86
  13.3776         76
  13.3962         71
  13.4147         82
  13.4333         79
  13.4519         75
  13.4705         71
  13.4890         73
  13.5076         67
  13.5262         76
  13.5448         70
  13.5634         65
  13.5819         58
  13.6005         68
  13.6191         63
  13.6377         70
  13.6562         79
  13.6748         81
  13.6934         74
  13.7120         68
  13.7305         67
  13.7491         70
  13.7677         73
  13.7863         61
  13.8048         68
  13.8234         81
  13.8420         86
  13.8606         62
  13.8791         70
  13.8977         64
  13.9163         79
  13.9349         73
  13.9534         60
  13.9720         60
  13.9906         62
  14.0092         59
  14.0277         53
  14.0463         66
  14.0649         53
  14.0835         80
  14.1020         54
  14.1206         62
  14.1392         72
  14.1578         60
  14.1763         56
  14.1949         65
  14.2135         66
  14.2321         61
  14.2506         70
  14.2692         77
  14.2878         69
  14.3064         66
  14.3250         68
  14.3435         81
  14.3621         81
  14.3807         53
  14.3993         67
  14.4178         58
  14.4364         67
  14.4550         79
  14.4736         62
  14.4921         87
  14.5107         58
  14.5293         49
  14.5479         54
  14.5664         69
  14.5850         67
  14.6036         82
  14.6222         58
  14.6407         70
  14.6593         74
  14.6779         72
  14.6965         54
  14.7150         77
  14.7336         55
  14.7522         69
  14.7708         51
  14.7893         58
  14.8079         57
  14.8265         61
  14.8451         61
  14.8636         65
  14.8822         76
  14.9008         59
  14.9194         48
  14.9379         62
  14.9565         71
  14.9751         60
  14.9937         61
  15.0122         56
  15.0308         70
  15.0494         70
  15.0680         64
  15.0866         76
  15.1051         63
  15.1237         74
  15.1423         52
  15.1609         58
  15.1794         50
  15.1980         62
  15.2166         64
  15.2352         64
  15.2537         62
  15.2723         63
  15.2909         60
  15.3095         55
  15.3280         53
  15.3466         68
  15.3652         66
  15.3838         68
  15.4023         63
  15.4209         61
  15.4395         46
  15.4581         58
  15.4766         53
  15.4952         52
  15.5138         58
  15.5324         67
  15.5509         58
  15.5695         51
  15.5881         66
  15.6067         56
  15.6252         68
  15.6438         59
  15.6624         52
  15.6810         55
  15.6995         75
  15.7181         78
  15.7367         53
  15.7553         71
  15.7738         73
  15.7924         60
  15.8110         50
  15.8296         65
  15.8482         52
  15.8667         54
  15.8853         52
  15.9039         58
  15.9225         46
  15.9410         49
  15.9596         70
  15.9782         73
  15.9968         61
  16.0153         67
  16.0339         61
  16.0525         62
  16.0711         61
  16.0896         63
  16.1082         57
  16.1268         53
  16.1454         47
  16.1639         49
  16.1825         63
  16.2011         54
  16.2197         61
  16.2382         60
  16.2568         64
  16.2754         45
  16.2940         69
  16.3125         60
  16.3311         65
  16.3497         48
  16.3683         54
  16.3868         68
  16.4054         51
  16.4240         68
  16.4426         59
  16.4611         59
  16.4797         43
  16.4983         66
  16.5169         56
  16.5354         63
  16.5540         69
  16.5726         65
  16.5912         69
  16.6097         71
  16.6283         54
  16.6469         57
  16.6655         59
  16.6841         54
  16.7026         59
  16.7212         71
  16.7398         63
  16.7584         55
  16.7769         64
  16.7955         72
  16.8141         61
  16.8327         63
  16.8512         66
  16.8698         53
  16.8884         61
  16.9070         63
  16.9255         65
  16.9441         65
  16.9627         55
  16.9813         58
  16.9998         66
  17.0184         56
  17.0370         54
  17.0556         73
  17.0741         57
  17.0927         57
  17.1113         61
  17.1299         59
  17.1484         52
  17.1670         65
  17.1856         56
  17.2042         63
  17.2227         62
  17.2413         56
  17.2599         74
  17.2785         57
  17.2970         63
  17.3156         61
  17.3342         67
  17.3528         56
  17.3713         57
  17.3899         68
  17.4085         59
  17.4271         59
  17.4457         48
  17.4642         62
  17.4828         56
  17.5014         64
  17.5200         58
  17.5385         59
  17.5571         74
  17.5757         65
  17.5943         60
  17.6128         62
  17.6314         65
  17.6500         66
  17.6686         67
  17.6871         71
  17.7057         60
  17.7243         51
  17.7429         70
  17.7614         66
  17.7800         69
  17.7986         56
  17.8172         53
  17.8357         48
  17.8543         73
  17.8729         54
  17.8915         73
  17.9100         65
  17.9286         60
  17.9472         63
  17.9658         53
  17.9843         64
  18.0029         55
  18.0215         63
  18.0401         47
  18.0586         71
  18.0772         53
  18.0958         64
  18.1144         64
  18.1329         66
  18.1515         65
  18.1701         62
  18.1887         49
  18.2073         75
  18.2258         49
  18.2444         51
  18.2630         83
  18.2816         68
  18.3001         66
  18.3187         65
  18.3373         57
  18.3559         64
  18.3744         62
  18.3930         62
  18.4116         61
  18.4302         76
  18.4487         53
  18.4673         60
  18.4859         61
  18.5045         57
  18.5230         62
  18.5416         50
  18.5602         60
  18.5788         56
  18.5973         73
  18.6159         74
  18.6345         56
  18.6531         48
  18.6716         67
  18.6902         66
  18.7088         56
  18.7274         48
  18.7459         59
  18.7645         48
  18.7831         58
  18.8017         66
  18.8202         70
  18.8388         63
  18.8574         66
  18.8760         53
  18.8945         72
  18.9131         45
  18.9317         63
  18.9503         54
  18.9689         65
  18.9874         57
  19.0060         43
  19.0246         64
  19.0432         61
  19.0617         60
  19.0803         66
  19.0989         56
  19.1175         69
  19.1360         63
  19.1546         60
  19.1732         59
  19.1918         52
  19.2103         73
  19.2289         65
  19.2475         47
  19.2661         61
  19.2846         65
  19.3032         61
  19.3218         54
  19.3404         64
  19.3589         71
  19.3775         47
  19.3961         59
  19.4147         68
  19.4332         56
  19.4518         62
  19.4704         64
  19.4890         71
  19.5075         52
  19.5261         55
  19.5447         63
  19.5633         71
  19.5818         66
  19.6004         57
  19.6190         61
  19.6376         69
  19.6561         53
  19.6747         58
  19.6933         71
  19.7119         68
  19.7305         60
  19.7490         56
  19.7676         63
  19.7862         52
  19.8048         79
  19.8233         72
  19.8419         77
  19.8605         55
  19.8791         59
  19.8976         82
  19.9162         52
  19.9348         71
  19.9534         56
  19.9719         66
  19.9905         58
  20.0091         59
  20.0277         59
  20.0462         58
  20.0648         73
  20.0834         64
  20.1020         66
  20.1205         60
  20.1391         69
  20.1577         66
  20.1763         60
  20.1948         75
  20.2134         53
  20.2320         70
  20.2506         64
  20.2691         64
  20.2877         68
  20.3063         61
  20.3249         69
  20.3434         64
  20.3620         74
  20.3806         70
  20.3992         64
  20.4177         58
  20.4363         73
  20.4549         67
  20.4735         64
  20.4921         71
  20.5106         62
  20.5292         69
  20.5478         66
  20.5664         72
  20.5849         76
  20.6035         66
  20.6221         61
  20.6407         68
  20.6592         76
  20.6778         65
  20.6964         51
  20.7150         63
  20.7335         68
  20.7521         61
  20.7707         71
  20.7893         73
  20.8078         70
  20.8264         90
  20.8450         70
  20.8636         72
  20.8821         62
  20.9007         76
  20.9193         83
  20.9379         79
  20.9564         65
  20.9750         76
  20.9936         63
  21.0122         70
  21.0307         62
  21.0493         70
  21.0679         70
  21.0865         84
  21.1050         72
  21.1236         79
  21.1422         78
  21.1608         79
  21.1793         97
  21.1979         87
  21.2165        130
  21.2351        126
  21.2537        103
  21.2722        116
  21.2908         98
  21.3094        129
  21.3280        135
  21.3465        165
  21.3651        196
  21.3837        163
  21.4023        123
  21.4208        128
  21.4394         96
  21.4580         76
  21.4766         74
  21.4951         70
  21.5137         67
  21.5323         77
  21.5509         67
  21.5694         67
  21.5880         78
  21.6066         87
  21.6252         62
  21.6437         69
  21.6623         78
  21.6809         67
  21.6995         75
  21.7180         66
  21.7366         78
  21.7552         85
  21.7738         80
  21.7923         63
  21.8109         75
  21.8295         58
  21.8481         64
  21.8666         78
  21.8852         85
  21.9038         91
  21.9224         76
  21.9409         74
  21.9595         63
  21.9781         65
  21.9967         83
  22.0152         77
  22.0338         64
  22.0524         68
  22.0710         67
  22.0896         88
  22.1081         64
  22.1267         61
  22.1453         67
  22.1639         69
  22.1824         76
  22.2010         62
  22.2196         69
  22.2382         79
  22.2567         58
  22.2753         88
  22.2939         68
  22.3125         77
  22.3310         74
  22.3496         72
  22.3682         71
  22.3868         74
  22.4053         80
  22.4239         82
  22.4425         74
  22.4611         87
  22.4796         81
  22.4982         59
  22.5168         73
  22.5354         73
  22.5539         82
  22.5725         78
  22.5911         70
  22.6097         76
  22.6282         64
  22.6468         75
  22.6654         60
  22.6840         72
  22.7025         75
  22.7211         63
  22.7397         72
  22.7583         78
  22.7768         65
  22.7954         64
  22.8140         78
  22.8326         89
  22.8512         79
  22.8697         76
  22.8883         75
  22.9069         73
  22.9255         72
  22.9440         75
  22.9626         65
  22.9812         70
  22.9998         74
  23.0183         75
  23.0369         80
  23.0555         76
  23.0741         71
  23.0926         58
  23.1112         67
  23.1298         83
  23.1484         67
  23.1669         74
  23.1855         60
  23.2041         70
  23.2227         77
  23.2412         72
  23.2598         91
  23.2784         64
  23.2970         62
  23.3155         87
  23.3341         78
  23.3527         85
  23.3713         59
  23.3898         74
  23.4084         69
  23.4270         72
  23.4456         70
  23.4641         78
  23.4827         81
  23.5013         75
  23.5199         72
  23.5384         63
  23.5570         89
  23.5756         93
  23.5942         66
  23.6128         63
  23.6313         59
  23.6499         79
  23.6685         77
  23.6871         81
  23.7056         74
  23.7242         80
  23.7428         87
  23.7614         95
  23.7799         76
  23.7985         81
  23.8171         65
  23.8357         82
  23.8542         83
  23.8728         71
  23.8914         87
  23.9100         89
  23.9285         79
  23.9471         55
  23.9657         79
  23.9843         81
  24.0028         71
  24.0214         69
  24.0400         76
  24.0586         71
  24.0771         76
  24.0957         69
  24.1143         70
  24.1329         79
  24.1514         73
  24.1700         87
  24.1886         75
  24.2072         75
  24.2257         76
  24.2443         97
  24.2629         77
  24.2815         71
  24.3000         65
  24.3186         96
  24.3372         71
  24.3558         73
  24.3744         76
  24.3929        100
  24.4115         86
  24.4301        104
  24.4487         72
  24.4672         77
  24.4858         69
  24.5044         73
  24.5230         82
  24.5415         62
  24.5601         70
  24.5787         85
  24.5973         79
  24.6158         73
  24.6344         71
  24.6530         66
  24.6716         63
  24.6901         73
  24.7087         82
  24.7273         75
  24.7459         89
  24.7644         68
  24.7830         72
  24.8016         59
  24.8202         65
  24.8387         83
  24.8573         80
  24.8759         75
  24.8945         76
  24.9130         68
  24.9316         78
  24.9502         74
  24.9688         74
  24.9873         62
  25.0059         67
  25.0245         72
  25.0431         81
  25.0616         74
  25.0802         75
  25.0988         72
  25.1174         66
  25.1360         71
  25.1545         77
  25.1731         65
  25.1917         90
  25.2103         85
  25.2288         65
  25.2474         77
  25.2660         77
  25.2846         75
  25.3031         75
  25.3217         75
  25.3403         57
  25.3589         68
  25.3774         77
  25.3960         75
  25.4146         67
  25.4332         78
  25.4517         74
  25.4703         63
  25.4889         58
  25.5075         79
  25.5260         62
  25.5446         71
  25.5632         68
  25.5818         58
  25.6003         79
  25.6189         68
  25.6375         75
  25.6561         72
  25.6746         53
  25.6932         67
  25.7118         75
  25.7304         81
  25.7489         85
  25.7675         70
  25.7861         77
  25.8047         70
  25.8232         95
  25.8418         61
  25.8604         66
  25.8790         69
  25.8976         61
  25.9161         74
  25.9347         73
  25.9533         55
  25.9719         71
  25.9904         77
  26.0090         75
  26.0276         75
  26.0462         70
  26.0647         76
  26.0833         80
  26.1019         76
  26.1205         70
  26.1390         65
  26.1576         72
  26.1762         81
  26.1948         62
  26.2133         81
  26.2319         78
  26.2505         71
  26.2691         82
  26.2876         90
  26.3062         53
  26.3248         62
  26.3434         65
  26.3619         64
  26.3805         69
  26.3991         55
  26.4177         61
  26.4362         81
  26.4548         59
  26.4734         65
  26.4920         60
  26.5105         58
  26.5291         94
  26.5477         81
  26.5663         68
  26.5848         86
  26.6034         75
  26.6220         75
  26.6406         53
  26.6591         76
  26.6777         76
  26.6963         69
  26.7149         80
  26.7335         61
  26.7520         69
  26.7706         70
  26.7892         57
  26.8078         60
  26.8263         70
  26.8449         73
  26.8635         74
  26.8821         63
  26.9006         70
  26.9192         60
  26.9378         77
  26.9564         83
  26.9749         70
  26.9935         65
  27.0121         68
  27.0307         78
  27.0492         84
  27.0678         75
  27.0864         79
  27.1050         67
  27.1235         81
  27.1421         66
  27.1607         62
  27.1793         88
  27.1978        105
  27.2164         81
  27.2350        104
  27.2536         80
  27.2721         89
  27.2907        103
  27.3093         72
  27.3279         75
  27.3464         69
  27.3650         66
  27.3836         73
  27.4022         74
  27.4207         75
  27.4393         76
  27.4579         57
  27.4765         67
  27.4951         72
  27.5136         55
  27.5322         55
  27.5508         65
  27.5694         63
  27.5879         56
  27.6065         78
  27.6251         63
  27.6437         48
  27.6622         65
  27.6808         67
  27.6994         72
  27.7180         67
  27.7365         63
  27.7551         73
  27.7737         61
  27.7923         54
  27.8108         58
  27.8294         47
  27.8480         55
  27.8666         58
  27.8851         83
  27.9037         75
  27.9223         52
  27.9409         65
  27.9594         56
  27.9780         45
  27.9966         55
  28.0152         65
  28.0337         82
  28.0523         71
  28.0709         66
  28.0895         58
  28.1080         53
  28.1266         60
  28.1452         74
  28.1638         63
  28.1823         60
  28.2009         66
  28.2195         78
  28.2381         75
  28.2567         64
  28.2752         57
  28.2938         64
  28.3124         74
  28.3310         66
  28.3495         59
  28.3681         66
  28.3867         68
  28.4053         68
  28.4238         56
  28.4424         64
  28.4610         50
  28.4796         47
  28.4981         68
  28.5167         55
  28.5353         67
  28.5539         51
  28.5724         62
  28.5910         57
  28.6096         62
  28.6282         56
  28.6467         68
  28.6653         69
  28.6839         64
  28.7025         53
  28.7210         50
  28.7396         58
  28.7582         60
  28.7768         63
  28.7953         50
  28.8139         70
  28.8325         53
  28.8511         65
  28.8696         85
  28.8882         63
  28.9068         67
  28.9254         55
  28.9439         50
  28.9625         48
  28.9811         61
  28.9997         72
  29.0183         75
  29.0368         62
  29.0554         55
  29.0740         52
  29.0926         52
  29.1111         58
  29.1297         74
  29.1483         59
  29.1669         63
  29.1854         57
  29.2040         69
  29.2226         70
  29.2412         63
  29.2597         50
  29.2783         59
  29.2969         67
  29.3155         64
  29.3340         57
  29.3526         56
  29.3712         73
  29.3898         66
  29.4083         70
  29.4269         69
  29.4455         57
  29.4641         55
  29.4826         54
  29.5012         61
  29.5198         70
  29.5384         68
  29.5569         58
  29.5755         63
  29.5941         64
  29.6127         53
  29.6312         56
  29.6498         56
  29.6684         47
  29.6870         69
  29.7055         57
  29.7241         53
  29.7427         57
  29.7613         64
  29.7799         59
  29.7984         53
  29.8170         46
  29.8356         64
  29.8542         46
  29.8727         72
  29.8913         67
  29.9099         59
  29.9285         59
  29.9470         59
  29.9656         54
  29.9842         64
  30.0028         61
  30.0213         57
  30.0399         46
  30.0585         36
  30.0771         60
  30.0956         59
  30.1142         49
  30.1328         48
  30.1514         61
  30.1699         61
  30.1885         51
  30.2071         47
  30.2257         59
  30.2442         61
  30.2628         56
  30.2814         65
  30.3000         72
  30.3185         74
  30.3371         78
  30.3557         72
  30.3743        105
  30.3928        121
  30.4114        101
  30.4300         62
  30.4486         81
  30.4671         86
  30.4857         91
  30.5043         70
  30.5229         53
  30.5415         67
  30.5600         58
  30.5786         59
  30.5972         54
  30.6158         53
  30.6343         54
  30.6529         65
  30.6715         68
  30.6901         77
  30.7086         46
  30.7272         52
  30.7458         48
  30.7644         41
  30.7829         53
  30.8015         60
  30.8201         48
  30.8387         57
  30.8572         62
  30.8758         53
  30.8944         57
  30.9130         50
  30.9315         51
  30.9501         62
  30.9687         62
  30.9873         48
  31.0058         60
  31.0244         46
  31.0430         52
  31.0616         58
  31.0801         47
  31.0987         50
  31.1173         48
  31.1359         44
  31.1544         36
  31.1730         47
  31.1916         48
  31.2102         42
  31.2287         54
  31.2473         41
  31.2659         56
  31.2845         58
  31.3030         62
  31.3216         44
  31.3402         60
  31.3588         49
  31.3774         39
  31.3959         41
  31.4145         49
  31.4331         38
  31.4517         50
  31.4702         63
  31.4888         55
  31.5074         64
  31.5260         43
  31.5445         51
  31.5631         55
  31.5817         52
  31.6003         55
  31.6188         53
  31.6374         41
  31.6560         52
  31.6746         46
  31.6931         37
  31.7117         45
  31.7303         53
  31.7489         57
  31.7674         51
  31.7860         46
  31.8046         49
  31.8232         44
  31.8417         47
  31.8603         47
  31.8789         40
  31.8975         54
  31.9160         57
  31.9346         67
  31.9532         48
  31.9718         57
  31.9903         60
  32.0089         43
  32.0275         61
  32.0461         58
  32.0646         35
  32.0832         46
  32.1018         62
  32.1204         42
  32.1390         52
  32.1575         52
  32.1761         45
  32.1947         48
  32.2133         44
  32.2318         68
  32.2504         52
  32.2690         51
  32.2876         55
  32.3061         49
  32.3247         44
  32.3433         45
  32.3619         54
  32.3804         59
  32.3990         53
  32.4176         57
  32.4362         56
  32.4547         54
  32.4733         60
  32.4919         58
  32.5105         57
  32.5290         46
  32.5476         47
  32.5662         56
  32.5848         50
  32.6033         48
  32.6219         56
  32.6405         48
  32.6591         51
  32.6776         46
  32.6962         45
  32.7148         50
  32.7334         46
  32.7519         45
  32.7705         54
  32.7891         56
  32.8077         46
  32.8262         38
  32.8448         45
  32.8634         38
  32.8820         42
  32.9006         29
  32.9191         50
  32.9377         48
  32.9563         46
  32.9749         48
  32.9934         33
  33.0120         49
  33.0306         45
  33.0492         52
  33.0677         55
  33.0863         45
  33.1049         34
  33.1235         41
  33.1420         52
  33.1606         34
  33.1792         62
  33.1978         47
  33.2163         40
  33.2349         36
  33.2535         30
  33.2721         49
  33.2906         45
  33.3092         51
  33.3278         36
  33.3464         39
  33.3649         32
  33.3835         33
  33.4021         47
  33.4207         29
  33.4392         47
  33.4578         48
  33.4764         48
  33.4950         39
  33.5135         50
  33.5321         43
  33.5507         49
  33.5693         58
  33.5878         41
  33.6064         39
  33.6250         41
  33.6436         36
  33.6622         41
  33.6807         41
  33.6993         48
  33.7179         46
  33.7365         51
  33.7550         40
  33.7736         46
  33.7922         52
  33.8108         39
  33.8293         31
  33.8479         45
  33.8665         54
  33.8851         50
  33.9036         55
  33.9222         46
  33.9408         47
  33.9594         38
  33.9779         46
  33.9965         32
  34.0151         41
  34.0337         48
  34.0522         36
  34.0708         41
  34.0894         39
  34.1080         44
  34.1265         45
  34.1451         42
  34.1637         52
  34.1823         41
  34.2008         38
  34.2194         46
  34.2380         51
  34.2566         36
  34.2751         45
  34.2937         40
  34.3123         43
  34.3309         45
  34.3494         55
  34.3680         40
  34.3866         35
  34.4052         43
  34.4238         43
  34.4423         49
  34.4609         48
  34.4795         56
  34.4981         41
  34.5166         44
  34.5352         41
  34.5538         28
  34.5724         43
  34.5909         51
  34.6095         40
  34.6281         53
  34.6467         45
  34.6652         38
  34.6838         56
  34.7024         61
  34.7210         65
  34.7395         48
  34.7581         60
  34.7767         63
  34.7953         55
  34.8138         52
  34.8324         48
  34.8510         69
  34.8696         50
  34.8881         38
  34.9067         27
  34.9253         40
  34.9439         29
  34.9624         44
  34.9810         33
  34.9996         42
  35.0182         44
  35.0367         40
  35.0553         38
  35.0739         44
  35.0925         40
  35.1110         37
  35.1296         37
  35.1482         47
  35.1668         36
  35.1854         39
  35.2039         43
  35.2225         41
  35.2411         33
  35.2597         46
  35.2782         39
  35.2968         44
  35.3154         43
  35.3340         48
  35.3525         36
  35.3711         41
  35.3897         36
  35.4083         38
  35.4268         34
  35.4454         45
  35.4640         33
  35.4826         35
  35.5011         36
  35.5197         30
  35.5383         28
  35.5569         37
  35.5754         27
  35.5940         47
  35.6126         43
  35.6312         45
  35.6497         52
  35.6683         31
  35.6869         38
  35.7055         37
  35.7240         34
  35.7426         39
  35.7612         34
  35.7798         33
  35.7983         29
  35.8169         31
  35.8355         33
  35.8541         42
  35.8726         39
  35.8912         34
  35.9098         35
  35.9284         38
  35.9469         46
  35.9655         31
  35.9841         34
  36.0027         33
  36.0213         39
  36.0398         28
  36.0584         33
  36.0770         51
  36.0956         40
  36.1141         38
  36.1327         23
  36.1513         38
  36.1699         35
  36.1884         37
  36.2070         34
  36.2256         33
  36.2442         34
  36.2627         40
  36.2813         40
  36.2999         31
  36.3185         24
  36.3370         25
  36.3556         46
  36.3742         38
  36.3928         27
  36.4113         36
  36.4299         29
  36.4485         33
  36.4671         38
  36.4856         28
  36.5042         32
  36.5228         31
  36.5414         39
  36.5599         42
  36.5785         39
  36.5971         28
  36.6157         32
  36.6342         28
  36.6528         42
  36.6714         30
  36.6900         37
  36.7085         28
  36.7271         39
  36.7457         33
  36.7643         36
  36.7829         24
  36.8014         40
  36.8200         30
  36.8386         31
  36.8572         40
  36.8757         41
  36.8943         41
  36.9129         38
  36.9315         33
  36.9500         39
  36.9686         31
  36.9872         35
  37.0058         36
  37.0243         31
  37.0429         47
  37.0615         33
  37.0801         32
  37.0986         27
  37.1172         46
  37.1358         39
  37.1544         32
  37.1729         38
  37.1915         36
  37.2101         31
  37.2287         42
  37.2472         35
  37.2658         31
  37.2844         51
  37.3030         33
  37.3215         32
  37.3401         44
  37.3587         40
  37.3773         39
  37.3958         54
  37.4144         41
  37.4330         57
  37.4516         59
  37.4701         41
  37.4887         42
  37.5073         43
  37.5259         40
  37.5445         34
  37.5630         60
  37.5816         40
  37.6002         41
  37.6188         36
  37.6373         37
  37.6559         40
  37.6745         38
  37.6931         31
  37.7116         28
  37.7302         25
  37.7488         42
  37.7674         25
  37.7859         36
  37.8045         35
  37.8231         27
  37.8417         45
  37.8602         35
  37.8788         49
  37.8974         33
  37.9160         22
  37.9345         30
  37.9531         29
  37.9717         31
  37.9903         27
  38.0088         29
  38.0274         32
  38.0460         22
  38.0646         30
  38.0831         38
  38.1017         29
  38.1203         27
  38.1389         40
  38.1574         30
  38.1760         32
  38.1946         31
  38.2132         27
  38.2317         41
  38.2503         41
  38.2689         27
  38.2875         27
  38.3061         31
  38.3246         33
  38.3432         21
  38.3618         26
  38.3804         23
  38.3989         30
  38.4175         31
  38.4361         27
  38.4547         27
  38.4732         28
  38.4918         27
  38.5104         30
  38.5290         23
  38.5475         30
  38.5661         33
  38.5847         24
  38.6033         28
  38.6218         23
  38.6404         19
  38.6590         24
  38.6776         26
  38.6961         43
  38.7147         34
  38.7333         38
  38.7519         35
  38.7704         36
  38.7890         38
  38.8076         39
  38.8262         39
  38.8447         40
  38.8633         34
  38.8819         32
  38.9005         33
  38.9190         39
  38.9376         22
  38.9562         31
  38.9748         20
  38.9933         29
  39.0119         24
  39.0305         29
  39.0491         30
  39.0677         25
  39.0862         28
  39.1048         28
  39.1234         41
  39.1420         36
  39.1605         38
  39.1791         32
  39.1977         26
  39.2163         32
  39.2348         49
  39.2534         31
  39.2720         31
  39.2906         21
  39.3091         26
  39.3277         28
  39.3463         43
  39.3649         30
  39.3834         23
  39.4020         23
  39.4206         34
  39.4392         36
  39.4577         38
  39.4763         27
  39.4949         28
  39.5135         22
  39.5320         44
  39.5506         29
  39.5692         23
  39.5878         21
  39.6063         30
  39.6249         27
  39.6435         31
  39.6621         31
  39.6806         35
  39.6992         35
  39.7178         28
  39.7364         32
  39.7549         20
  39.7735         28
  39.7921         36
  39.8107         33
  39.8293         39
  39.8478         35
  39.8664         30
  39.8850         32
  39.9036         26
  39.9221         32
  39.9407         26
  39.9593         24
  39.9779         24
  39.9964         27
  40.0150         25
  40.0336         25
  40.0522         40
  40.0707         34
  40.0893         29
  40.1079         26
  40.1265         22
  40.1450         28
  40.1636         34
  40.1822         22
  40.2008         39
  40.2193         29
  40.2379         24
  40.2565         21
  40.2751         27
  40.2936         18
  40.3122         28
  40.3308         26
  40.3494         38
  40.3679         28
  40.3865         28
  40.4051         29
  40.4237         21
  40.4422         27
  40.4608         27
  40.4794         30
  40.4980         33
  40.5165         17
  40.5351         31
  40.5537         17
  40.5723         35
  40.5908         24
  40.6094         29
  40.6280         36
  40.6466         32
  40.6652         31
  40.6837         25
  40.7023         30
  40.7209         22
  40.7395         35
  40.7580         23
  40.7766         28
  40.7952         26
  40.8138         33
  40.8323         22
  40.8509         24
  40.8695         33
  40.8881         31
  40.9066         30
  40.9252         32
  40.9438         32
  40.9624         37
  40.9809         32
  40.9995         28
  41.0181         28
  41.0367         26
  41.0552         31
  41.0738         32
  41.0924         22
  41.1110         30
  41.1295         29
  41.1481         33
  41.1667         21
  41.1853         29
  41.2038         20
  41.2224         30
  41.2410         26
  41.2596         27
  41.2781         30
  41.2967         30
  41.3153         36
  41.3339         33
  41.3524         27
  41.3710         24
  41.3896         25
  41.4082         35
  41.4268         23
  41.4453         25
  41.4639         16
  41.4825         34
  41.5011         20
  41.5196         27
  41.5382         36
  41.5568         32
  41.5754         21
  41.5939         34
  41.6125         37
  41.6311         30
  41.6497         27
  41.6682         39
  41.6868         29
  41.7054         29
  41.7240         26
  41.7425         36
  41.7611         25
  41.7797         31
  41.7983         34
  41.8168         20
  41.8354         16
  41.8540         20
  41.8726         21
  41.8911         38
  41.9097         27
  41.9283         32
  41.9469         26
  41.9654         30
  41.9840         40
  42.0026         24
  42.0212         29
  42.0397         31
  42.0583         22
  42.0769         25
  42.0955         26
  42.1140         38
  42.1326         25
  42.1512         25
  42.1698         35
  42.1884         25
  42.2069         32
  42.2255         26
  42.2441         20
  42.2627         37
  42.2812         23
  42.2998         25
  42.3184         23
  42.3370         23
  42.3555         27
  42.3741         31
  42.3927         24
  42.4113         24
  42.4298         31
  42.4484         30
  42.4670         30
  42.4856         28
  42.5041         28
  42.5227         31
  42.5413         24
  42.5599         38
  42.5784         33
  42.5970         30
  42.6156         31
  42.6342         28
  42.6527         23
  42.6713         33
  42.6899         22
  42.7085         36
  42.7270         21
  42.7456         21
  42.7642         26
  42.7828         31
  42.8013         24
  42.8199         36
  42.8385         21
  42.8571         28
  42.8756         29
  42.8942         26
  42.9128         13
  42.9314         34
  42.9500         33
  42.9685         24
  42.9871         41
  43.0057         27
  43.0243         20
  43.0428         27
  43.0614         20
  43.0800         31
  43.0986         26
  43.1171         31
  43.1357         25
  43.1543         28
  43.1729         33
  43.1914         39
  43.2100         29
  43.2286         33
  43.2472         28
  43.2657         31
  43.2843         31
  43.3029         24
  43.3215         26
  43.3400         35
  43.3586         30
  43.3772         28
  43.3958         24
  43.4143         19
  43.4329         38
  43.4515         34
  43.4701         35
  43.4886         47
  43.5072         47
  43.5258         45
  43.5444         46
  43.5629         31
  43.5815         32
  43.6001         36
  43.6187         33
  43.6372         35
  43.6558         33
  43.6744         21
  43.6930         29
  43.7116         31
  43.7301         38
  43.7487         37
  43.7673         31
  43.7859         26
  43.8044         21
  43.8230         28
  43.8416         24
  43.8602         20
  43.8787         19
  43.8973         23
  43.9159         34
  43.9345         41
  43.9530         32
  43.9716         30
  43.9902         27
  44.0088         37
  44.0273         26
  44.0459         28
  44.0645         23
  44.0831         23
  44.1016         29
  44.1202         30
  44.1388         27
  44.1574         33
  44.1759         27
  44.1945         19
  44.2131         28
  44.2317         31
  44.2502         28
  44.2688         34
  44.2874         33
  44.3060         29
  44.3245         29
  44.3431         26
  44.3617         32
  44.3803         29
  44.3988         26
  44.4174         27
  44.4360         20
  44.4546         15
  44.4732         30
  44.4917         28
  44.5103         23
  44.5289         25
  44.5475         45
  44.5660         24
  44.5846         30
  44.6032         21
  44.6218         23
  44.6403         32
  44.6589         35
  44.6775         35
  44.6961         32
  44.7146         26
  44.7332         28
  44.7518         25
  44.7704         23
  44.7889         37
  44.8075         26
  44.8261         27
  44.8447         26
  44.8632         27
  44.8818         44
  44.9004         29
  44.9190         38
  44.9375         23
  44.9561         20
  44.9747         26
  44.9933         25
  45.0118         32
  45.0304         30
  45.0490         25
  45.0676         22
  45.0861         27
  45.1047         17
  45.1233         17
  45.1419         27
  45.1604         21
  45.1790         34
  45.1976         27
  45.2162         27
  45.2347         24
  45.2533         26
  45.2719         26
  45.2905         27
  45.3091         29
  45.3276         32
  45.3462         25
  45.3648         27
  45.3834         23
  45.4019         19
  45.4205         24
  45.4391         29
  45.4577         21
  45.4762         12
  45.4948         26
  45.5134         37
  45.5320         21
  45.5505         30
  45.5691         22
  45.5877         22
  45.6063         26
  45.6248         26
  45.6434         25
  45.6620         26
  45.6806         26
  45.6991         25
  45.7177         26
  45.7363         26
  45.7549         22
  45.7734         15
  45.7920         26
  45.8106         23
  45.8292         26
  45.8477         31
  45.8663         23
  45.8849         29
  45.9035         20
  45.9220         20
  45.9406         33
  45.9592         24
  45.9778         29
  45.9963         29
  46.0149         23
  46.0335         19
  46.0521         20
  46.0707         25
  46.0892         21
  46.1078         23
  46.1264         25
  46.1450         29
  46.1635         27
  46.1821         33
  46.2007         23
  46.2193         24
  46.2378         25
  46.2564         29
  46.2750         20
  46.2936         28
  46.3121         20
  46.3307         27
  46.3493         17
  46.3679         28
  46.3864         17
  46.4050         22
  46.4236         23
  46.4422         21
  46.4607         22
  46.4793         28
  46.4979         27
  46.5165         21
  46.5350         26
  46.5536         25
  46.5722         20
  46.5908         26
  46.6093         25
  46.6279         25
  46.6465         22
  46.6651         24
  46.6836         24
  46.7022         28
  46.7208         25
  46.7394         31
  46.7579         17
  46.7765         19
  46.7951         25
  46.8137         26
  46.8323         33
  46.8508         24
  46.8694         18
  46.8880         24
  46.9066         26
  46.9251         18
  46.9437         26
  46.9623         23
  46.9809         24
  46.9994         20
  47.0180         32
  47.0366         18
  47.0552         15
  47.0737         26
  47.0923         21
  47.1109         27
  47.1295         17
  47.1480         13
  47.1666         30
  47.1852         30
  47.2038         23
  47.2223         28
  47.2409         27
  47.2595         30
  47.2781         31
  47.2966         26
  47.3152         30
  47.3338         17
  47.3524         17
  47.3709         16
  47.3895         28
  47.4081         29
  47.4267         27
  47.4452         20
  47.4638         20
  47.4824         23
  47.5010         26
  47.5195         22
  47.5381         27
  47.5567         22
  47.5753         29
  47.5939         25
  47.6124         25
  47.6310         24
  47.6496         19
  47.6682         18
  47.6867         24
  47.7053         20
  47.7239         15
  47.7425         22
  47.7610         24
  47.7796         25
  47.7982         29
  47.8168         28
  47.8353         26
  47.8539         18
  47.8725         32
  47.8911         25
  47.9096         18
  47.9282         21
  47.9468         25
  47.9654         24
  47.9839         18
  48.0025         29
  48.0211         19
  48.0397         19
  48.0582         27
  48.0768         26
  48.0954         25
  48.1140         31
  48.1325         15
  48.1511         30
  48.1697         27
  48.1883         25
  48.2068         27
  48.2254         30
  48.2440         25
  48.2626         25
  48.2811         31
  48.2997         19
  48.3183         28
  48.3369         27
  48.3555         23
  48.3740         24
  48.3926         20
  48.4112         22
  48.4298         15
  48.4483         24
  48.4669         21
  48.4855         19
  48.5041         26
  48.5226         16
  48.5412         16
  48.5598         23
  48.5784         25
  48.5969         18
  48.6155         18
  48.6341         25
  48.6527         34
  48.6712         24
  48.6898         26
  48.7084         23
  48.7270         28
  48.7455         21
  48.7641         23
  48.7827         22
  48.8013         33
  48.8198         23
  48.8384         21
  48.8570         27
  48.8756         29
  48.8941         26
  48.9127         25
  48.9313         40
  48.9499         47
  48.9684         44
  48.9870         36
  49.0056         35
  49.0242         27
  49.0427         19
  49.0613         39
  49.0799         27
  49.0985         43
  49.1171         27
  49.1356         32
  49.1542         23
  49.1728         28
  49.1914         28
  49.2099         18
  49.2285         15
  49.2471         27
  49.2657         23
  49.2842         20
  49.3028         21
  49.3214         24
  49.3400         28
  49.3585         19
  49.3771         21
  49.3957         19
  49.4143         23
  49.4328         25
  49.4514         29
  49.4700         18
  49.4886         27
  49.5071         23
  49.5257         25
  49.5443         17
  49.5629         24
  49.5814         20
  49.6000         21
  49.6186         16
  49.6372         22
  49.6557         18
  49.6743         28
  49.6929         29
  49.7115         23
  49.7300         23
  49.7486         25
  49.7672         35
  49.7858         29
  49.8043         25
  49.8229         23
  49.8415         20
  49.8601         23
  49.8786         15
  49.8972         28
  49.9158         25
  49.9344         24
  49.9530         25
  49.9715         26
  49.9901         21
  50.0087         18
  50.0273         24
  50.0458         22
  50.0644         25
  50.0830         20
  50.1016         23
  50.1201         21
  50.1387         22
  50.1573         22
  50.1759         25
  50.1944         15
  50.2130         28
  50.2316         27
  50.2502         21
  50.2687         20
  50.2873         29
  50.3059         29
  50.3245         23
  50.3430         25
  50.3616         30
  50.3802         30
  50.3988         18
  50.4173         26
  50.4359         25
  50.4545         22
  50.4731         31
  50.4916         24
  50.5102         23
  50.5288         19
  50.5474         29
  50.5659         17
  50.5845         23
  50.6031         17
  50.6217         30
  50.6402         21
  50.6588         24
  50.6774         22
  50.6960         19
  50.7146         18
  50.7331         19
  50.7517         10
  50.7703         28
  50.7889         26
  50.8074         26
  50.8260         19
  50.8446         16
  50.8632         24
  50.8817         25
  50.9003         20
  50.9189         22
  50.9375         29
  50.9560         21
  50.9746         30
  50.9932         17
  51.0118         18
  51.0303         27
  51.0489         20
  51.0675         25
  51.0861         16
  51.1046         18
  51.1232         20
  51.1418         16
  51.1604         22
  51.1789         15
  51.1975         21
  51.2161         36
  51.2347         15
  51.2532         24
  51.2718         19
  51.2904         28
  51.3090         20
  51.3275         23
  51.3461         26
  51.3647         22
  51.3833         29
  51.4018         15
  51.4204         28
  51.4390         29
  51.4576         17
  51.4762         25
  51.4947         25
  51.5133         30
  51.5319         18
  51.5505         27
  51.5690         22
  51.5876         30
  51.6062         21
  51.6248         22
  51.6433         19
  51.6619         20
  51.6805         24
  51.6991         17
  51.7176         17
  51.7362         12
  51.7548         14
  51.7734         24
  51.7919         27
  51.8105         29
  51.8291         23
  51.8477         28
  51.8662         21
  51.8848         28
  51.9034         19
  51.9220         23
  51.9405         25
  51.9591         15
  51.9777         34
  51.9963         23
  52.0148         20
  52.0334         31
  52.0520         21
  52.0706         26
  52.0891         25
  52.1077         27
  52.1263         21
  52.1449         23
  52.1634         27
  52.1820         29
  52.2006         22
  52.2192         26
  52.2378         25
  52.2563         22
  52.2749         27
  52.2935         27
  52.3121         26
  52.3306         18
  52.3492         18
  52.3678         21
  52.3864         24
  52.4049         14
  52.4235         26
  52.4421         14
  52.4607         21
  52.4792         20
  52.4978         21
  52.5164         15
  52.5350         22
  52.5535         30
  52.5721         20
  52.5907         24
  52.6093         21
  52.6278         21
  52.6464         21
  52.6650         23
  52.6836         25
  52.7021         28
  52.7207         13
  52.7393         20
  52.7579         27
  52.7764         23
  52.7950         25
  52.8136         21
  52.8322         19
  52.8507         27
  52.8693          9
  52.8879         22
  52.9065         24
  52.9250         28
  52.9436         16
  52.9622         20
  52.9808         35
  52.9994         32
  53.0179         25
  53.0365         15
  53.0551         16
  53.0737         21
  53.0922         26
  53.1108         20
  53.1294         24
  53.1480         20
  53.1665         19
  53.1851         20
  53.2037         30
  53.2223         28
  53.2408         19
  53.2594         13
  53.2780         20
  53.2966         29
  53.3151         19
  53.3337         22
  53.3523         21
  53.3709         23
  53.3894         24
  53.4080         22
  53.4266         18
  53.4452         26
  53.4637         22
  53.4823         29
  53.5009         21
  53.5195         17
  53.5380         13
  53.5566         19
  53.5752         26
  53.5938         17
  53.6123         16
  53.6309         27
  53.6495         12
  53.6681         26
  53.6866         14
  53.7052         20
  53.7238         27
  53.7424         23
  53.7610         19
  53.7795         22
  53.7981         25
  53.8167         20
  53.8353         21
  53.8538         27
  53.8724         17
  53.8910         17
  53.9096         19
  53.9281         28
  53.9467         17
  53.9653         26
  53.9839         37
  54.0024         28
  54.0210         33
  54.0396         28
  54.0582         36
  54.0767         32
  54.0953         22
  54.1139         25
  54.1325         37
  54.1510         28
  54.1696         19
  54.1882         21
  54.2068         25
  54.2253         25
  54.2439         28
  54.2625         24
  54.2811         27
  54.2996         16
  54.3182         23
  54.3368         25
  54.3554         26
  54.3739         24
  54.3925         27
  54.4111         20
  54.4297         23
  54.4482         24
  54.4668         15
  54.4854         22
  54.5040         20
  54.5225         21
  54.5411         24
  54.5597         25
  54.5783         16
  54.5969         17
  54.6154         16
  54.6340         26
  54.6526         21
  54.6712         22
  54.6897         27
  54.7083         19
  54.7269         24
  54.7455         16
  54.7640         27
  54.7826         18
  54.8012         26
  54.8198         24
  54.8383         22
  54.8569         32
  54.8755         26
  54.8941         23
  54.9126         16
  54.9312         24
  54.9498         22
  54.9684         24
  54.9869         24
  55.0055         16
  55.0241         16
  55.0427         18
  55.0612         25
  55.0798         25
  55.0984         23
  55.1170         17
  55.1355         14
  55.1541         26
  55.1727         16
  55.1913         16
  55.2098         17
  55.2284         15
  55.2470         29
  55.2656         20
  55.2841         18
  55.3027         23
  55.3213         31
  55.3399         27
  55.3585         15
  55.3770         21
  55.3956         19
  55.4142         13
  55.4328         23
  55.4513         19
  55.4699         12
  55.4885         19
  55.5071         22
  55.5256         21
  55.5442         23
  55.5628         22
  55.5814         21
  55.5999         24
  55.6185         17
  55.6371         22
  55.6557         14
  55.6742         26
  55.6928         10
  55.7114         23
  55.7300         16
  55.7485         16
  55.7671         14
  55.7857         31
  55.8043         19
  55.8228         19
  55.8414         27
  55.8600         30
  55.8786         29
  55.8971         21
  55.9157         17
  55.9343         23
  55.9529         18
  55.9714         19
  55.9900         16
  56.0086         18
  56.0272         16
  56.0457         20
  56.0643         12
  56.0829         19
  56.1015         17
  56.1201         23
  56.1386         22
  56.1572         25
  56.1758         23
  56.1944         29
  56.2129         35
  56.2315         27
  56.2501         30
  56.2687         33
  56.2872         24
  56.3058         25
  56.3244         19
  56.3430         21
  56.3615         26
  56.3801         28
  56.3987         23
  56.4173         23
  56.4358         27
  56.4544         23
  56.4730         23
  56.4916         20
  56.5101         18
  56.5287         30
  56.5473         20
  56.5659         21
  56.5844         24
  56.6030         22
  56.6216         24
  56.6402         15
  56.6587         21
  56.6773         21
  56.6959         14
  56.7145         17
  56.7330         20
  56.7516         15
  56.7702         15
  56.7888         16
  56.8073         31
  56.8259         20
  56.8445         15
  56.8631         19
  56.8817         19
  56.9002         18
  56.9188         19
  56.9374         16
  56.9560         19
  56.9745         19
  56.9931         16
  57.0117         25
  57.0303         17
  57.0488         19
  57.0674         19
  57.0860         22
  57.1046         18
  57.1231         24
  57.1417         18
  57.1603         22
  57.1789         20
  57.1974         22
  57.2160         22
  57.2346         21
  57.2532         19
  57.2717         20
  57.2903         20
  57.3089         22
  57.3275         22
  57.3460         25
  57.3646         20
  57.3832         19
  57.4018         13
  57.4203         20
  57.4389         20
  57.4575         20
  57.4761         20
  57.4946         27
  57.5132         24
  57.5318         22
  57.5504         21
  57.5689         27
  57.5875         21
  57.6061         20
  57.6247         20
  57.6433         26
  57.6618         18
  57.6804         23
  57.6990         21
  57.7176         26
  57.7361         18
  57.7547         20
  57.7733         16
  57.7919         20
  57.8104         23
  57.8290         22
  57.8476         19
  57.8662         13
  57.8847         18
  57.9033         21
  57.9219         19
  57.9405         21
  57.9590         17
  57.9776         16
  57.9962         21
  58.0148         22
  58.0333         20
  58.0519         28
  58.0705         23
  58.0891         18
  58.1076         18
  58.1262         24
  58.1448         11
  58.1634         26
  58.1819         20
  58.2005         31
  58.2191         14
  58.2377         22
  58.2562         24
  58.2748         13
  58.2934         10
  58.3120         26
  58.3305         29
  58.3491         25
  58.3677         27
  58.3863         13
  58.4049         17
  58.4234         20
  58.4420         23
  58.4606         15
  58.4792         20
  58.4977         21
  58.5163         15
  58.5349         10
  58.5535         19
  58.5720         14
  58.5906         17
  58.6092         25
  58.6278         17
  58.6463         18
  58.6649         22
  58.6835         21
  58.7021         22
  58.7206         14
  58.7392         12
  58.7578         22
  58.7764         17
  58.7949         18
  58.8135         22
  58.8321         23
  58.8507         18
  58.8692         13
  58.8878         27
  58.9064         16
  58.9250         17
  58.9435         14
  58.9621         14
  58.9807         16
  58.9993         24
  59.0178          9
  59.0364         13
  59.0550         22
  59.0736         22
  59.0921         21
  59.1107         15
  59.1293         27
  59.1479         22
  59.1664         24
  59.1850         26
  59.2036         15
  59.2222         16
  59.2408         21
  59.2593         16
  59.2779         31
  59.2965         22
  59.3151         19
  59.3336         17
  59.3522         24
  59.3708         26
  59.3894         19
  59.4079         22
  59.4265         14
  59.4451         29
  59.4637         27
  59.4822         21
  59.5008         24
  59.5194         20
  59.5380         22
  59.5565         18
  59.5751         24
  59.5937         20
  59.6123         21
  59.6308         23
  59.6494         12
  59.6680         14
  59.6866         22
  59.7051         14
  59.7237         12
  59.7423         17
  59.7609         25
  59.7794         22
  59.7980         24
  59.8166         15
  59.8352         19
  59.8537         21
  59.8723         17
  59.8909         21
  59.9095         13
  59.9280         21
  59.9466         20
  59.9652         23
  59.9838         25
  60.0024         19
