; (content of file Y:\Sam\Apurva-07-20-2022\puck4\ML_20220718_40_SJD_4_LaB6-1min.raw)
_FILEVERSION = 3
_SAMPLE = ML_20220718_40_SJD_4_LaB6-1min
_+SAMPLE = 
_SITE = USA
_USER = Administrator
_GONIOMETER_CODE = 20
; Goniometer : D8 theta/2theta, stage : Unknown
_ATTACHMENTS_CODE = 0
_GONIOMETER_RADIUS = 200.5
_FIXED_DIVSLIT = 0.6
_FIXED_SAMPLESLIT = 0
_SOLLER_SLITS = 2
_FIXED_DETSLIT = 9.55
_MONOCHROMATOR = 0
; Incident beam monochromator : None
_SOLLER_SLITS_2 = N
_THIN_FILM = N
_BETA_FILTER = Y
_FIXED_ANTISLIT = 5.89
_ANALYZER_CODE = 0
; Received beam analyzer : None
_DATEMEASURED = "26-Jul-2022 10:30:39"
_WL_UNIT = A
_WL1 = 1.5406
_WL2 = 1.54439
_WL3 = 1.39222
_WLRATIO = 0.5
_ANODE = Cu
_V4_INF_CREATOR = XRDWizard
_V4_INF_CREATOR_VERSION = V2.9.0.22
_V4_INF_WIZARD_VERSION = V2.9.0.22
_V4_INF_WIZARD_ADDINS = V2.9.0.22
_V4_INF_WIZARD_DOCTYPE = XRD
_V4_INF_OSUSER = McQueenLab
_V4_INF_USER = Administrator
_V4_INF_SITE = USA
_V4_INF_SAMPLEID = ML_20220718_40_SJD_4_LaB6-1min

; Data for range 1
_DRIVE = COUPLED
_STEPTIME = 4.23
_STEPSIZE = 0.0185756
_STEPMODE = C
_START = 5
_THETA = 2.5
_2THETA = 5
_KHI = 0
_PHI = 0
_X = 0
_Y = 0
_Z = 0
_DETECTOR = 5
; Detector type : Unknown
_DETECTORSLIT = unkn
_AUX1 = 0
_AUX2 = 0
_AUX3 = 0
_TIMESTARTED = 15
_TEMP_RATE = -1
_TEMP_DELAY = -1
_KV = 40
_MA = 40
_RANGE_WL = 1.5406
_3DPLANE = 0
_V4_ADDITIONALDETECTOR = 257
_V4_PSD2THETA = 3.3738
_V4_PSDCHANNEL1 = 0
_V4_PSDAPERTURE = 12.68
_V4_PSDTYPE = 5
_V4_PSDFIXED = 0
_V4_COUNTERS_MASK = 4096
_V4_DRIVES_MASK = 0
_V4_ENCODERS_MASK = 0
_2THETACOUNTS = 1
; 2THETA  PSD
   5.0000        100
   5.0186         97
   5.0372         93
   5.0557         99
   5.0743        102
   5.0929         96
   5.1115         85
   5.1300         96
   5.1486         83
   5.1672         79
   5.1858         95
   5.2043         81
   5.2229         86
   5.2415         80
   5.2601         92
   5.2786         85
   5.2972         87
   5.3158         86
   5.3344         85
   5.3529         71
   5.3715         74
   5.3901         90
   5.4087         70
   5.4272         82
   5.4458         96
   5.4644         65
   5.4830         89
   5.5015         86
   5.5201         75
   5.5387         98
   5.5573         86
   5.5758         82
   5.5944         84
   5.6130         89
   5.6316         56
   5.6501         82
   5.6687         89
   5.6873         81
   5.7059         81
   5.7244         68
   5.7430         77
   5.7616         90
   5.7802         78
   5.7988         91
   5.8173         77
   5.8359         75
   5.8545         69
   5.8731         73
   5.8916         86
   5.9102         76
   5.9288         83
   5.9474         65
   5.9659         75
   5.9845         75
   6.0031         63
   6.0217         61
   6.0402         62
   6.0588         76
   6.0774         77
   6.0960         88
   6.1145         78
   6.1331         58
   6.1517         81
   6.1703         71
   6.1888         68
   6.2074         68
   6.2260         76
   6.2446         73
   6.2631         76
   6.2817         56
   6.3003         82
   6.3189         63
   6.3374         75
   6.3560         78
   6.3746         62
   6.3932         62
   6.4117         66
   6.4303         74
   6.4489         77
   6.4675         63
   6.4860         73
   6.5046         68
   6.5232         67
   6.5418         67
   6.5604         62
   6.5789         59
   6.5975         66
   6.6161         59
   6.6347         41
   6.6532         62
   6.6718         61
   6.6904         57
   6.7090         53
   6.7275         60
   6.7461         66
   6.7647         60
   6.7833         57
   6.8018         48
   6.8204         65
   6.8390         69
   6.8576         63
   6.8761         71
   6.8947         68
   6.9133         58
   6.9319         61
   6.9504         60
   6.9690         58
   6.9876         80
   7.0062         64
   7.0247         61
   7.0433         49
   7.0619         59
   7.0805         68
   7.0990         57
   7.1176         57
   7.1362         66
   7.1548         52
   7.1733         50
   7.1919         58
   7.2105         57
   7.2291         59
   7.2476         62
   7.2662         65
   7.2848         66
   7.3034         54
   7.3220         46
   7.3405         57
   7.3591         53
   7.3777         54
   7.3963         51
   7.4148         49
   7.4334         65
   7.4520         68
   7.4706         47
   7.4891         62
   7.5077         66
   7.5263         62
   7.5449         65
   7.5634         67
   7.5820         61
   7.6006         59
   7.6192         57
   7.6377         59
   7.6563         65
   7.6749         45
   7.6935         52
   7.7120         57
   7.7306         62
   7.7492         67
   7.7678         67
   7.7863         60
   7.8049         88
   7.8235         70
   7.8421         65
   7.8606         76
   7.8792         66
   7.8978         59
   7.9164         56
   7.9349         73
   7.9535         66
   7.9721         61
   7.9907         80
   8.0092         57
   8.0278         84
   8.0464         69
   8.0650         52
   8.0835         62
   8.1021         58
   8.1207         80
   8.1393         73
   8.1579         65
   8.1764         67
   8.1950         75
   8.2136         59
   8.2322         65
   8.2507         70
   8.2693         76
   8.2879         68
   8.3065         67
   8.3250         79
   8.3436         78
   8.3622         60
   8.3808         77
   8.3993         78
   8.4179         70
   8.4365         70
   8.4551         72
   8.4736         63
   8.4922         69
   8.5108         71
   8.5294         78
   8.5479         72
   8.5665         85
   8.5851         76
   8.6037         64
   8.6222         85
   8.6408         80
   8.6594         80
   8.6780         56
   8.6965         79
   8.7151         73
   8.7337         70
   8.7523         72
   8.7708         82
   8.7894         60
   8.8080         64
   8.8266         66
   8.8451         79
   8.8637         67
   8.8823         93
   8.9009         68
   8.9195         70
   8.9380         68
   8.9566         72
   8.9752         68
   8.9938         84
   9.0123         89
   9.0309         84
   9.0495         78
   9.0681         73
   9.0866         71
   9.1052         73
   9.1238         87
   9.1424        102
   9.1609         74
   9.1795         80
   9.1981         58
   9.2167         79
   9.2352         64
   9.2538         75
   9.2724         79
   9.2910         76
   9.3095         89
   9.3281         86
   9.3467         60
   9.3653         90
   9.3838         68
   9.4024         88
   9.4210         91
   9.4396         95
   9.4581         83
   9.4767         76
   9.4953         75
   9.5139         79
   9.5324         79
   9.5510         77
   9.5696         94
   9.5882         88
   9.6067         84
   9.6253         75
   9.6439         84
   9.6625         80
   9.6811         71
   9.6996         81
   9.7182         91
   9.7368         87
   9.7554         85
   9.7739         71
   9.7925         78
   9.8111         86
   9.8297         86
   9.8482         85
   9.8668         76
   9.8854         70
   9.9040         83
   9.9225         88
   9.9411         81
   9.9597         94
   9.9783         65
   9.9968         83
  10.0154         87
  10.0340         91
  10.0526         93
  10.0711        108
  10.0897         90
  10.1083         72
  10.1269         93
  10.1454         78
  10.1640         74
  10.1826         69
  10.2012        106
  10.2197         76
  10.2383         82
  10.2569         80
  10.2755        101
  10.2940         81
  10.3126         96
  10.3312         90
  10.3498         87
  10.3683         72
  10.3869         73
  10.4055         91
  10.4241         95
  10.4427         87
  10.4612         99
  10.4798         85
  10.4984         88
  10.5170         99
  10.5355         79
  10.5541         86
  10.5727         94
  10.5913         78
  10.6098        107
  10.6284         87
  10.6470         92
  10.6656         86
  10.6841        103
  10.7027         86
  10.7213         73
  10.7399        103
  10.7584         92
  10.7770         77
  10.7956         92
  10.8142         85
  10.8327        105
  10.8513        107
  10.8699         88
  10.8885         89
  10.9070         92
  10.9256         69
  10.9442         94
  10.9628        108
  10.9813         82
  10.9999         69
  11.0185         90
  11.0371         85
  11.0556         93
  11.0742         86
  11.0928         80
  11.1114         79
  11.1299         90
  11.1485         91
  11.1671        100
  11.1857         82
  11.2043         91
  11.2228         81
  11.2414         95
  11.2600         90
  11.2786         89
  11.2971         92
  11.3157         73
  11.3343         97
  11.3529         97
  11.3714         90
  11.3900         85
  11.4086         82
  11.4272         95
  11.4457         91
  11.4643         87
  11.4829        102
  11.5015         89
  11.5200         97
  11.5386         85
  11.5572         87
  11.5758         95
  11.5943         86
  11.6129         88
  11.6315         72
  11.6501         82
  11.6686         80
  11.6872         96
  11.7058         87
  11.7244         88
  11.7429        101
  11.7615         86
  11.7801         76
  11.7987         81
  11.8172         82
  11.8358         89
  11.8544         93
  11.8730         76
  11.8915         87
  11.9101         84
  11.9287         89
  11.9473         88
  11.9659         68
  11.9844         76
  12.0030         98
  12.0216         94
  12.0402         86
  12.0587         87
  12.0773         79
  12.0959         77
  12.1145         89
  12.1330         89
  12.1516         87
  12.1702         89
  12.1888         89
  12.2073         89
  12.2259         69
  12.2445         86
  12.2631         77
  12.2816         65
  12.3002        110
  12.3188         76
  12.3374         78
  12.3559         84
  12.3745         74
  12.3931         85
  12.4117         89
  12.4302         90
  12.4488         70
  12.4674         77
  12.4860         80
  12.5045         74
  12.5231         72
  12.5417         71
  12.5603         76
  12.5788         99
  12.5974         92
  12.6160         84
  12.6346         76
  12.6531         72
  12.6717         71
  12.6903         73
  12.7089         98
  12.7274         70
  12.7460         72
  12.7646         83
  12.7832         62
  12.8018         76
  12.8203         85
  12.8389         68
  12.8575         80
  12.8761         67
  12.8946         70
  12.9132         76
  12.9318         70
  12.9504         89
  12.9689         70
  12.9875         81
  13.0061         89
  13.0247         72
  13.0432         75
  13.0618         70
  13.0804         84
  13.0990         90
  13.1175         73
  13.1361         78
  13.1547         76
  13.1733         83
  13.1918         67
  13.2104         67
  13.2290         74
  13.2476         73
  13.2661         82
  13.2847         66
  13.3033         64
  13.3219         67
  13.3404         80
  13.3590         74
  13.3776         79
  13.3962         88
  13.4147         69
  13.4333         61
  13.4519         57
  13.4705         72
  13.4890         78
  13.5076         68
  13.5262         79
  13.5448         63
  13.5634         85
  13.5819         68
  13.6005         67
  13.6191         72
  13.6377         65
  13.6562         74
  13.6748         64
  13.6934         62
  13.7120         64
  13.7305         64
  13.7491         72
  13.7677         63
  13.7863         68
  13.8048         70
  13.8234         65
  13.8420         68
  13.8606         69
  13.8791         83
  13.8977         69
  13.9163         65
  13.9349         73
  13.9534         56
  13.9720         72
  13.9906         66
  14.0092         71
  14.0277         62
  14.0463         71
  14.0649         78
  14.0835         67
  14.1020         63
  14.1206         62
  14.1392         70
  14.1578         63
  14.1763         69
  14.1949         68
  14.2135         62
  14.2321         71
  14.2506         66
  14.2692         58
  14.2878         74
  14.3064         72
  14.3250         72
  14.3435         77
  14.3621         41
  14.3807         80
  14.3993         71
  14.4178         60
  14.4364         63
  14.4550         61
  14.4736         55
  14.4921         82
  14.5107         54
  14.5293         61
  14.5479         65
  14.5664         63
  14.5850         66
  14.6036         60
  14.6222         62
  14.6407         80
  14.6593         58
  14.6779         52
  14.6965         60
  14.7150         63
  14.7336         54
  14.7522         77
  14.7708         63
  14.7893         72
  14.8079         53
  14.8265         58
  14.8451         60
  14.8636         72
  14.8822         67
  14.9008         76
  14.9194         63
  14.9379         66
  14.9565         58
  14.9751         71
  14.9937         64
  15.0122         59
  15.0308         64
  15.0494         52
  15.0680         68
  15.0866         77
  15.1051         68
  15.1237         71
  15.1423         69
  15.1609         49
  15.1794         56
  15.1980         47
  15.2166         55
  15.2352         57
  15.2537         58
  15.2723         49
  15.2909         72
  15.3095         64
  15.3280         76
  15.3466         55
  15.3652         65
  15.3838         68
  15.4023         54
  15.4209         61
  15.4395         60
  15.4581         63
  15.4766         51
  15.4952         70
  15.5138         73
  15.5324         46
  15.5509         51
  15.5695         62
  15.5881         59
  15.6067         56
  15.6252         54
  15.6438         54
  15.6624         60
  15.6810         63
  15.6995         45
  15.7181         50
  15.7367         61
  15.7553         71
  15.7738         59
  15.7924         66
  15.8110         58
  15.8296         59
  15.8482         53
  15.8667         61
  15.8853         62
  15.9039         63
  15.9225         55
  15.9410         56
  15.9596         61
  15.9782         53
  15.9968         66
  16.0153         48
  16.0339         61
  16.0525         49
  16.0711         60
  16.0896         61
  16.1082         48
  16.1268         72
  16.1454         49
  16.1639         60
  16.1825         53
  16.2011         68
  16.2197         56
  16.2382         59
  16.2568         56
  16.2754         56
  16.2940         75
  16.3125         61
  16.3311         72
  16.3497         63
  16.3683         72
  16.3868         55
  16.4054         64
  16.4240         53
  16.4426         52
  16.4611         59
  16.4797         69
  16.4983         55
  16.5169         64
  16.5354         64
  16.5540         63
  16.5726         78
  16.5912         71
  16.6097         63
  16.6283         76
  16.6469         58
  16.6655         57
  16.6841         48
  16.7026         74
  16.7212         61
  16.7398         53
  16.7584         63
  16.7769         61
  16.7955         61
  16.8141         62
  16.8327         72
  16.8512         60
  16.8698         46
  16.8884         66
  16.9070         57
  16.9255         61
  16.9441         43
  16.9627         56
  16.9813         60
  16.9998         56
  17.0184         60
  17.0370         67
  17.0556         46
  17.0741         52
  17.0927         57
  17.1113         52
  17.1299         57
  17.1484         74
  17.1670         60
  17.1856         55
  17.2042         62
  17.2227         58
  17.2413         51
  17.2599         77
  17.2785         57
  17.2970         55
  17.3156         49
  17.3342         58
  17.3528         52
  17.3713         60
  17.3899         45
  17.4085         61
  17.4271         49
  17.4457         62
  17.4642         50
  17.4828         77
  17.5014         66
  17.5200         60
  17.5385         51
  17.5571         59
  17.5757         66
  17.5943         62
  17.6128         58
  17.6314         64
  17.6500         64
  17.6686         62
  17.6871         55
  17.7057         54
  17.7243         68
  17.7429         67
  17.7614         62
  17.7800         50
  17.7986         63
  17.8172         66
  17.8357         64
  17.8543         60
  17.8729         54
  17.8915         67
  17.9100         61
  17.9286         40
  17.9472         62
  17.9658         61
  17.9843         52
  18.0029         51
  18.0215         68
  18.0401         74
  18.0586         65
  18.0772         68
  18.0958         60
  18.1144         56
  18.1329         60
  18.1515         58
  18.1701         50
  18.1887         48
  18.2073         53
  18.2258         74
  18.2444         54
  18.2630         71
  18.2816         61
  18.3001         54
  18.3187         74
  18.3373         59
  18.3559         60
  18.3744         58
  18.3930         65
  18.4116         56
  18.4302         60
  18.4487         72
  18.4673         71
  18.4859         77
  18.5045         59
  18.5230         73
  18.5416         70
  18.5602         53
  18.5788         81
  18.5973         57
  18.6159         53
  18.6345         55
  18.6531         71
  18.6716         61
  18.6902         55
  18.7088         70
  18.7274         66
  18.7459         60
  18.7645         58
  18.7831         58
  18.8017         66
  18.8202         62
  18.8388         54
  18.8574         46
  18.8760         62
  18.8945         50
  18.9131         65
  18.9317         61
  18.9503         63
  18.9689         74
  18.9874         67
  19.0060         64
  19.0246         73
  19.0432         75
  19.0617         70
  19.0803         52
  19.0989         52
  19.1175         61
  19.1360         59
  19.1546         65
  19.1732         69
  19.1918         65
  19.2103         52
  19.2289         72
  19.2475         76
  19.2661         47
  19.2846         62
  19.3032         58
  19.3218         59
  19.3404         64
  19.3589         77
  19.3775         69
  19.3961         58
  19.4147         54
  19.4332         62
  19.4518         76
  19.4704         66
  19.4890         78
  19.5075         56
  19.5261         53
  19.5447         66
  19.5633         60
  19.5818         62
  19.6004         68
  19.6190         53
  19.6376         62
  19.6561         58
  19.6747         52
  19.6933         56
  19.7119         84
  19.7305         60
  19.7490         70
  19.7676         58
  19.7862         66
  19.8048         63
  19.8233         61
  19.8419         83
  19.8605         69
  19.8791         51
  19.8976         67
  19.9162         61
  19.9348         60
  19.9534         68
  19.9719         67
  19.9905         57
  20.0091         63
  20.0277         67
  20.0462         68
  20.0648         71
  20.0834         65
  20.1020         57
  20.1205         68
  20.1391         55
  20.1577         76
  20.1763         63
  20.1948         61
  20.2134         59
  20.2320         61
  20.2506         71
  20.2691         59
  20.2877         61
  20.3063         72
  20.3249         78
  20.3434         71
  20.3620         62
  20.3806         66
  20.3992         70
  20.4177         72
  20.4363         66
  20.4549         74
  20.4735         65
  20.4921         65
  20.5106         60
  20.5292         65
  20.5478         74
  20.5664         81
  20.5849         70
  20.6035         82
  20.6221         73
  20.6407         79
  20.6592         70
  20.6778         57
  20.6964         82
  20.7150         62
  20.7335         79
  20.7521         80
  20.7707         67
  20.7893         60
  20.8078         66
  20.8264         67
  20.8450         83
  20.8636         82
  20.8821         85
  20.9007         65
  20.9193         65
  20.9379         71
  20.9564         74
  20.9750         57
  20.9936         85
  21.0122         69
  21.0307         88
  21.0493         75
  21.0679         78
  21.0865         70
  21.1050         56
  21.1236         75
  21.1422         86
  21.1608         73
  21.1793         76
  21.1979         95
  21.2165        111
  21.2351        127
  21.2537        113
  21.2722        118
  21.2908        113
  21.3094        128
  21.3280        159
  21.3465        164
  21.3651        184
  21.3837        152
  21.4023        133
  21.4208        129
  21.4394        108
  21.4580         77
  21.4766         82
  21.4951         84
  21.5137         69
  21.5323         73
  21.5509         66
  21.5694         81
  21.5880         82
  21.6066         68
  21.6252         74
  21.6437         76
  21.6623         67
  21.6809         68
  21.6995         76
  21.7180         70
  21.7366         61
  21.7552         72
  21.7738         86
  21.7923         64
  21.8109         68
  21.8295         56
  21.8481         88
  21.8666         65
  21.8852         71
  21.9038         91
  21.9224         68
  21.9409         66
  21.9595         76
  21.9781         73
  21.9967         79
  22.0152         70
  22.0338         70
  22.0524         73
  22.0710         68
  22.0896         65
  22.1081         80
  22.1267         72
  22.1453         64
  22.1639         63
  22.1824         67
  22.2010         72
  22.2196         59
  22.2382         79
  22.2567         78
  22.2753         70
  22.2939         72
  22.3125         70
  22.3310         83
  22.3496         85
  22.3682         58
  22.3868         68
  22.4053         61
  22.4239         72
  22.4425         59
  22.4611         91
  22.4796         79
  22.4982         64
  22.5168         66
  22.5354         62
  22.5539         72
  22.5725         59
  22.5911         71
  22.6097         70
  22.6282         84
  22.6468         84
  22.6654         75
  22.6840         72
  22.7025         64
  22.7211         97
  22.7397         82
  22.7583         74
  22.7768         77
  22.7954         69
  22.8140         58
  22.8326         68
  22.8512         74
  22.8697         67
  22.8883         71
  22.9069         74
  22.9255         80
  22.9440         67
  22.9626         77
  22.9812         61
  22.9998         70
  23.0183         74
  23.0369         67
  23.0555         66
  23.0741         68
  23.0926         59
  23.1112         65
  23.1298         81
  23.1484         82
  23.1669         79
  23.1855         75
  23.2041         87
  23.2227         85
  23.2412         66
  23.2598         66
  23.2784         73
  23.2970         73
  23.3155         62
  23.3341         87
  23.3527         76
  23.3713         65
  23.3898         63
  23.4084         70
  23.4270         65
  23.4456         81
  23.4641         79
  23.4827         58
  23.5013         71
  23.5199         68
  23.5384         74
  23.5570         74
  23.5756         76
  23.5942         77
  23.6128         78
  23.6313         62
  23.6499         84
  23.6685         74
  23.6871         82
  23.7056         91
  23.7242         70
  23.7428         63
  23.7614         79
  23.7799         69
  23.7985         83
  23.8171         62
  23.8357         91
  23.8542         66
  23.8728         72
  23.8914         63
  23.9100         79
  23.9285         85
  23.9471         71
  23.9657         64
  23.9843         68
  24.0028         81
  24.0214         79
  24.0400         55
  24.0586         70
  24.0771         66
  24.0957         79
  24.1143         87
  24.1329         68
  24.1514         74
  24.1700         74
  24.1886         76
  24.2072         88
  24.2257         79
  24.2443         63
  24.2629         90
  24.2815         84
  24.3000         90
  24.3186         79
  24.3372         60
  24.3558         93
  24.3744         91
  24.3929         74
  24.4115         75
  24.4301         74
  24.4487         70
  24.4672         71
  24.4858         74
  24.5044         90
  24.5230         86
  24.5415         74
  24.5601         54
  24.5787         64
  24.5973         80
  24.6158         73
  24.6344         76
  24.6530         79
  24.6716         69
  24.6901         54
  24.7087         75
  24.7273         69
  24.7459         69
  24.7644         59
  24.7830         67
  24.8016         62
  24.8202         68
  24.8387         61
  24.8573         52
  24.8759         72
  24.8945         72
  24.9130         82
  24.9316         69
  24.9502         71
  24.9688         85
  24.9873         84
  25.0059         68
  25.0245         70
  25.0431         75
  25.0616         67
  25.0802         73
  25.0988         65
  25.1174         78
  25.1360         65
  25.1545         62
  25.1731         70
  25.1917         72
  25.2103         69
  25.2288         58
  25.2474         81
  25.2660         62
  25.2846         83
  25.3031         73
  25.3217         56
  25.3403         73
  25.3589         89
  25.3774         68
  25.3960         71
  25.4146         87
  25.4332         57
  25.4517         91
  25.4703         69
  25.4889         63
  25.5075         73
  25.5260         76
  25.5446         82
  25.5632         63
  25.5818         72
  25.6003         63
  25.6189         71
  25.6375         69
  25.6561         61
  25.6746         77
  25.6932         66
  25.7118         59
  25.7304         76
  25.7489         81
  25.7675         74
  25.7861         69
  25.8047         58
  25.8232         69
  25.8418         56
  25.8604         61
  25.8790         74
  25.8976         76
  25.9161         68
  25.9347         67
  25.9533         53
  25.9719         68
  25.9904         78
  26.0090         83
  26.0276         65
  26.0462         77
  26.0647         80
  26.0833         67
  26.1019         81
  26.1205         63
  26.1390         61
  26.1576         60
  26.1762         66
  26.1948         55
  26.2133         54
  26.2319         69
  26.2505         73
  26.2691         62
  26.2876         71
  26.3062         70
  26.3248         68
  26.3434         71
  26.3619         71
  26.3805         74
  26.3991         74
  26.4177         59
  26.4362         55
  26.4548         57
  26.4734         67
  26.4920         76
  26.5105         75
  26.5291         69
  26.5477         69
  26.5663         63
  26.5848         77
  26.6034         74
  26.6220         70
  26.6406         74
  26.6591         67
  26.6777         64
  26.6963         76
  26.7149         67
  26.7335         84
  26.7520         55
  26.7706         71
  26.7892         82
  26.8078         68
  26.8263         84
  26.8449         75
  26.8635         71
  26.8821         60
  26.9006         81
  26.9192         78
  26.9378         80
  26.9564         57
  26.9749         68
  26.9935         68
  27.0121         60
  27.0307         70
  27.0492         59
  27.0678         70
  27.0864         64
  27.1050         67
  27.1235         64
  27.1421         79
  27.1607         77
  27.1793         70
  27.1978         98
  27.2164         86
  27.2350         88
  27.2536         79
  27.2721        105
  27.2907         76
  27.3093         78
  27.3279         74
  27.3464         77
  27.3650         81
  27.3836         79
  27.4022         87
  27.4207         73
  27.4393         69
  27.4579         70
  27.4765         65
  27.4951         62
  27.5136         55
  27.5322         74
  27.5508         72
  27.5694         64
  27.5879         59
  27.6065         62
  27.6251         60
  27.6437         59
  27.6622         70
  27.6808         74
  27.6994         76
  27.7180         80
  27.7365         70
  27.7551         62
  27.7737         66
  27.7923         70
  27.8108         55
  27.8294         57
  27.8480         82
  27.8666         62
  27.8851         71
  27.9037         64
  27.9223         68
  27.9409         76
  27.9594         60
  27.9780         52
  27.9966         64
  28.0152         70
  28.0337         69
  28.0523         63
  28.0709         67
  28.0895         55
  28.1080         68
  28.1266         66
  28.1452         61
  28.1638         79
  28.1823         71
  28.2009         61
  28.2195         50
  28.2381         50
  28.2567         52
  28.2752         72
  28.2938         60
  28.3124         64
  28.3310         53
  28.3495         68
  28.3681         60
  28.3867         68
  28.4053         71
  28.4238         64
  28.4424         67
  28.4610         60
  28.4796         61
  28.4981         70
  28.5167         60
  28.5353         83
  28.5539         60
  28.5724         75
  28.5910         58
  28.6096         64
  28.6282         57
  28.6467         59
  28.6653         60
  28.6839         70
  28.7025         57
  28.7210         53
  28.7396         62
  28.7582         51
  28.7768         51
  28.7953         72
  28.8139         44
  28.8325         63
  28.8511         63
  28.8696         53
  28.8882         63
  28.9068         62
  28.9254         60
  28.9439         54
  28.9625         63
  28.9811         60
  28.9997         62
  29.0183         55
  29.0368         64
  29.0554         61
  29.0740         55
  29.0926         59
  29.1111         68
  29.1297         68
  29.1483         60
  29.1669         52
  29.1854         55
  29.2040         54
  29.2226         58
  29.2412         66
  29.2597         52
  29.2783         58
  29.2969         70
  29.3155         57
  29.3340         58
  29.3526         57
  29.3712         46
  29.3898         61
  29.4083         60
  29.4269         55
  29.4455         66
  29.4641         43
  29.4826         56
  29.5012         48
  29.5198         49
  29.5384         62
  29.5569         74
  29.5755         69
  29.5941         68
  29.6127         58
  29.6312         54
  29.6498         63
  29.6684         47
  29.6870         54
  29.7055         51
  29.7241         53
  29.7427         56
  29.7613         53
  29.7799         57
  29.7984         53
  29.8170         70
  29.8356         51
  29.8542         53
  29.8727         51
  29.8913         56
  29.9099         48
  29.9285         56
  29.9470         60
  29.9656         57
  29.9842         56
  30.0028         59
  30.0213         53
  30.0399         61
  30.0585         76
  30.0771         59
  30.0956         48
  30.1142         58
  30.1328         54
  30.1514         59
  30.1699         69
  30.1885         67
  30.2071         55
  30.2257         53
  30.2442         66
  30.2628         63
  30.2814         61
  30.3000         68
  30.3185         70
  30.3371         77
  30.3557         86
  30.3743        108
  30.3928        104
  30.4114        103
  30.4300         95
  30.4486        105
  30.4671         75
  30.4857         72
  30.5043         60
  30.5229         60
  30.5415         58
  30.5600         51
  30.5786         67
  30.5972         53
  30.6158         78
  30.6343         54
  30.6529         57
  30.6715         49
  30.6901         69
  30.7086         57
  30.7272         52
  30.7458         50
  30.7644         48
  30.7829         56
  30.8015         50
  30.8201         54
  30.8387         45
  30.8572         37
  30.8758         52
  30.8944         44
  30.9130         57
  30.9315         65
  30.9501         51
  30.9687         69
  30.9873         56
  31.0058         47
  31.0244         55
  31.0430         43
  31.0616         46
  31.0801         48
  31.0987         42
  31.1173         54
  31.1359         50
  31.1544         51
  31.1730         57
  31.1916         44
  31.2102         55
  31.2287         52
  31.2473         51
  31.2659         50
  31.2845         51
  31.3030         48
  31.3216         52
  31.3402         49
  31.3588         52
  31.3774         48
  31.3959         55
  31.4145         47
  31.4331         49
  31.4517         53
  31.4702         47
  31.4888         58
  31.5074         42
  31.5260         48
  31.5445         48
  31.5631         59
  31.5817         58
  31.6003         40
  31.6188         59
  31.6374         63
  31.6560         56
  31.6746         57
  31.6931         53
  31.7117         52
  31.7303         55
  31.7489         47
  31.7674         57
  31.7860         61
  31.8046         41
  31.8232         42
  31.8417         63
  31.8603         53
  31.8789         56
  31.8975         43
  31.9160         53
  31.9346         57
  31.9532         44
  31.9718         40
  31.9903         42
  32.0089         42
  32.0275         38
  32.0461         55
  32.0646         57
  32.0832         47
  32.1018         54
  32.1204         46
  32.1390         54
  32.1575         43
  32.1761         45
  32.1947         54
  32.2133         52
  32.2318         68
  32.2504         45
  32.2690         41
  32.2876         57
  32.3061         49
  32.3247         47
  32.3433         45
  32.3619         58
  32.3804         55
  32.3990         52
  32.4176         50
  32.4362         57
  32.4547         59
  32.4733         61
  32.4919         60
  32.5105         62
  32.5290         55
  32.5476         57
  32.5662         56
  32.5848         36
  32.6033         68
  32.6219         46
  32.6405         48
  32.6591         41
  32.6776         41
  32.6962         46
  32.7148         50
  32.7334         43
  32.7519         54
  32.7705         49
  32.7891         50
  32.8077         49
  32.8262         59
  32.8448         48
  32.8634         38
  32.8820         41
  32.9006         40
  32.9191         54
  32.9377         47
  32.9563         45
  32.9749         36
  32.9934         42
  33.0120         63
  33.0306         37
  33.0492         62
  33.0677         32
  33.0863         31
  33.1049         50
  33.1235         40
  33.1420         49
  33.1606         44
  33.1792         40
  33.1978         33
  33.2163         56
  33.2349         46
  33.2535         41
  33.2721         50
  33.2906         45
  33.3092         39
  33.3278         45
  33.3464         46
  33.3649         43
  33.3835         46
  33.4021         57
  33.4207         47
  33.4392         39
  33.4578         47
  33.4764         49
  33.4950         40
  33.5135         37
  33.5321         48
  33.5507         51
  33.5693         40
  33.5878         43
  33.6064         46
  33.6250         42
  33.6436         38
  33.6622         48
  33.6807         42
  33.6993         52
  33.7179         48
  33.7365         42
  33.7550         54
  33.7736         52
  33.7922         46
  33.8108         45
  33.8293         41
  33.8479         65
  33.8665         36
  33.8851         45
  33.9036         30
  33.9222         24
  33.9408         44
  33.9594         26
  33.9779         36
  33.9965         39
  34.0151         36
  34.0337         42
  34.0522         56
  34.0708         47
  34.0894         37
  34.1080         41
  34.1265         35
  34.1451         45
  34.1637         45
  34.1823         38
  34.2008         34
  34.2194         56
  34.2380         43
  34.2566         40
  34.2751         36
  34.2937         46
  34.3123         54
  34.3309         37
  34.3494         40
  34.3680         38
  34.3866         37
  34.4052         46
  34.4238         32
  34.4423         36
  34.4609         45
  34.4795         44
  34.4981         47
  34.5166         40
  34.5352         30
  34.5538         33
  34.5724         47
  34.5909         49
  34.6095         40
  34.6281         40
  34.6467         47
  34.6652         47
  34.6838         43
  34.7024         55
  34.7210         42
  34.7395         55
  34.7581         58
  34.7767         55
  34.7953         61
  34.8138         45
  34.8324         43
  34.8510         45
  34.8696         46
  34.8881         56
  34.9067         35
  34.9253         39
  34.9439         53
  34.9624         52
  34.9810         38
  34.9996         45
  35.0182         32
  35.0367         35
  35.0553         33
  35.0739         36
  35.0925         36
  35.1110         30
  35.1296         42
  35.1482         49
  35.1668         32
  35.1854         32
  35.2039         35
  35.2225         47
  35.2411         32
  35.2597         32
  35.2782         54
  35.2968         33
  35.3154         53
  35.3340         27
  35.3525         33
  35.3711         28
  35.3897         34
  35.4083         46
  35.4268         40
  35.4454         32
  35.4640         34
  35.4826         27
  35.5011         35
  35.5197         40
  35.5383         32
  35.5569         41
  35.5754         44
  35.5940         33
  35.6126         27
  35.6312         41
  35.6497         50
  35.6683         32
  35.6869         38
  35.7055         33
  35.7240         34
  35.7426         28
  35.7612         31
  35.7798         40
  35.7983         40
  35.8169         39
  35.8355         31
  35.8541         39
  35.8726         38
  35.8912         29
  35.9098         39
  35.9284         45
  35.9469         42
  35.9655         41
  35.9841         40
  36.0027         42
  36.0213         39
  36.0398         41
  36.0584         36
  36.0770         35
  36.0956         38
  36.1141         41
  36.1327         35
  36.1513         37
  36.1699         32
  36.1884         35
  36.2070         46
  36.2256         40
  36.2442         33
  36.2627         39
  36.2813         38
  36.2999         29
  36.3185         35
  36.3370         36
  36.3556         42
  36.3742         34
  36.3928         40
  36.4113         41
  36.4299         34
  36.4485         43
  36.4671         32
  36.4856         43
  36.5042         32
  36.5228         34
  36.5414         35
  36.5599         39
  36.5785         41
  36.5971         32
  36.6157         37
  36.6342         30
  36.6528         34
  36.6714         38
  36.6900         28
  36.7085         25
  36.7271         32
  36.7457         36
  36.7643         39
  36.7829         29
  36.8014         39
  36.8200         44
  36.8386         36
  36.8572         25
  36.8757         33
  36.8943         31
  36.9129         32
  36.9315         25
  36.9500         23
  36.9686         32
  36.9872         28
  37.0058         25
  37.0243         35
  37.0429         40
  37.0615         37
  37.0801         33
  37.0986         34
  37.1172         39
  37.1358         35
  37.1544         31
  37.1729         40
  37.1915         40
  37.2101         36
  37.2287         37
  37.2472         29
  37.2658         37
  37.2844         32
  37.3030         23
  37.3215         37
  37.3401         42
  37.3587         35
  37.3773         41
  37.3958         59
  37.4144         56
  37.4330         57
  37.4516         49
  37.4701         60
  37.4887         51
  37.5073         51
  37.5259         52
  37.5445         42
  37.5630         50
  37.5816         40
  37.6002         32
  37.6188         34
  37.6373         36
  37.6559         35
  37.6745         33
  37.6931         42
  37.7116         30
  37.7302         31
  37.7488         33
  37.7674         37
  37.7859         31
  37.8045         31
  37.8231         39
  37.8417         30
  37.8602         37
  37.8788         28
  37.8974         40
  37.9160         39
  37.9345         29
  37.9531         34
  37.9717         28
  37.9903         34
  38.0088         35
  38.0274         37
  38.0460         36
  38.0646         40
  38.0831         40
  38.1017         34
  38.1203         29
  38.1389         26
  38.1574         29
  38.1760         28
  38.1946         25
  38.2132         38
  38.2317         29
  38.2503         30
  38.2689         29
  38.2875         32
  38.3061         27
  38.3246         24
  38.3432         36
  38.3618         34
  38.3804         27
  38.3989         22
  38.4175         17
  38.4361         26
  38.4547         31
  38.4732         32
  38.4918         36
  38.5104         17
  38.5290         24
  38.5475         35
  38.5661         32
  38.5847         33
  38.6033         30
  38.6218         40
  38.6404         29
  38.6590         26
  38.6776         26
  38.6961         30
  38.7147         26
  38.7333         35
  38.7519         28
  38.7704         30
  38.7890         30
  38.8076         25
  38.8262         34
  38.8447         20
  38.8633         29
  38.8819         29
  38.9005         35
  38.9190         33
  38.9376         44
  38.9562         23
  38.9748         29
  38.9933         30
  39.0119         27
  39.0305         36
  39.0491         32
  39.0677         27
  39.0862         38
  39.1048         34
  39.1234         29
  39.1420         29
  39.1605         32
  39.1791         35
  39.1977         32
  39.2163         31
  39.2348         29
  39.2534         22
  39.2720         38
  39.2906         39
  39.3091         27
  39.3277         32
  39.3463         37
  39.3649         36
  39.3834         37
  39.4020         26
  39.4206         20
  39.4392         34
  39.4577         29
  39.4763         29
  39.4949         29
  39.5135         22
  39.5320         39
  39.5506         25
  39.5692         21
  39.5878         37
  39.6063         28
  39.6249         28
  39.6435         27
  39.6621         38
  39.6806         31
  39.6992         25
  39.7178         30
  39.7364         28
  39.7549         26
  39.7735         30
  39.7921         23
  39.8107         30
  39.8293         32
  39.8478         26
  39.8664         31
  39.8850         32
  39.9036         30
  39.9221         24
  39.9407         33
  39.9593         35
  39.9779         30
  39.9964         28
  40.0150         29
  40.0336         34
  40.0522         30
  40.0707         24
  40.0893         28
  40.1079         33
  40.1265         35
  40.1450         35
  40.1636         50
  40.1822         24
  40.2008         28
  40.2193         39
  40.2379         36
  40.2565         29
  40.2751         44
  40.2936         36
  40.3122         31
  40.3308         28
  40.3494         33
  40.3679         26
  40.3865         28
  40.4051         32
  40.4237         21
  40.4422         20
  40.4608         25
  40.4794         31
  40.4980         43
  40.5165         27
  40.5351         38
  40.5537         28
  40.5723         30
  40.5908         31
  40.6094         37
  40.6280         30
  40.6466         24
  40.6652         25
  40.6837         19
  40.7023         33
  40.7209         27
  40.7395         32
  40.7580         17
  40.7766         26
  40.7952         26
  40.8138         29
  40.8323         32
  40.8509         28
  40.8695         32
  40.8881         34
  40.9066         38
  40.9252         35
  40.9438         26
  40.9624         33
  40.9809         29
  40.9995         31
  41.0181         35
  41.0367         21
  41.0552         25
  41.0738         25
  41.0924         30
  41.1110         27
  41.1295         34
  41.1481         31
  41.1667         28
  41.1853         24
  41.2038         36
  41.2224         26
  41.2410         34
  41.2596         31
  41.2781         24
  41.2967         28
  41.3153         22
  41.3339         30
  41.3524         26
  41.3710         30
  41.3896         24
  41.4082         22
  41.4268         26
  41.4453         25
  41.4639         24
  41.4825         30
  41.5011         30
  41.5196         18
  41.5382         22
  41.5568         28
  41.5754         37
  41.5939         28
  41.6125         29
  41.6311         16
  41.6497         18
  41.6682         33
  41.6868         23
  41.7054         30
  41.7240         30
  41.7425         21
  41.7611         27
  41.7797         17
  41.7983         22
  41.8168         24
  41.8354         23
  41.8540         32
  41.8726         35
  41.8911         21
  41.9097         29
  41.9283         33
  41.9469         35
  41.9654         35
  41.9840         18
  42.0026         27
  42.0212         26
  42.0397         32
  42.0583         38
  42.0769         32
  42.0955         24
  42.1140         22
  42.1326         34
  42.1512         26
  42.1698         30
  42.1884         28
  42.2069         19
  42.2255         31
  42.2441         30
  42.2627         23
  42.2812         23
  42.2998         24
  42.3184         32
  42.3370         34
  42.3555         26
  42.3741         31
  42.3927         27
  42.4113         26
  42.4298         29
  42.4484         34
  42.4670         24
  42.4856         26
  42.5041         26
  42.5227         35
  42.5413         19
  42.5599         31
  42.5784         31
  42.5970         29
  42.6156         18
  42.6342         20
  42.6527         24
  42.6713         25
  42.6899         30
  42.7085         26
  42.7270         37
  42.7456         17
  42.7642         39
  42.7828         24
  42.8013         30
  42.8199         30
  42.8385         24
  42.8571         23
  42.8756         34
  42.8942         28
  42.9128         28
  42.9314         23
  42.9500         29
  42.9685         24
  42.9871         30
  43.0057         26
  43.0243         30
  43.0428         37
  43.0614         22
  43.0800         22
  43.0986         26
  43.1171         34
  43.1357         40
  43.1543         28
  43.1729         22
  43.1914         34
  43.2100         30
  43.2286         36
  43.2472         30
  43.2657         32
  43.2843         33
  43.3029         27
  43.3215         33
  43.3400         28
  43.3586         35
  43.3772         29
  43.3958         29
  43.4143         34
  43.4329         31
  43.4515         41
  43.4701         38
  43.4886         46
  43.5072         47
  43.5258         39
  43.5444         31
  43.5629         33
  43.5815         34
  43.6001         28
  43.6187         49
  43.6372         31
  43.6558         28
  43.6744         35
  43.6930         33
  43.7116         29
  43.7301         35
  43.7487         37
  43.7673         37
  43.7859         37
  43.8044         28
  43.8230         25
  43.8416         37
  43.8602         23
  43.8787         23
  43.8973         23
  43.9159         32
  43.9345         28
  43.9530         23
  43.9716         30
  43.9902         35
  44.0088         26
  44.0273         27
  44.0459         22
  44.0645         23
  44.0831         26
  44.1016         27
  44.1202         24
  44.1388         25
  44.1574         33
  44.1759         27
  44.1945         29
  44.2131         31
  44.2317         27
  44.2502         24
  44.2688         23
  44.2874         22
  44.3060         30
  44.3245         21
  44.3431         26
  44.3617         35
  44.3803         35
  44.3988         24
  44.4174         22
  44.4360         26
  44.4546         21
  44.4732         34
  44.4917         35
  44.5103         27
  44.5289         30
  44.5475         30
  44.5660         36
  44.5846         31
  44.6032         34
  44.6218         25
  44.6403         11
  44.6589         24
  44.6775         35
  44.6961         21
  44.7146         31
  44.7332         28
  44.7518         28
  44.7704         26
  44.7889         26
  44.8075         23
  44.8261         34
  44.8447         40
  44.8632         31
  44.8818         26
  44.9004         24
  44.9190         20
  44.9375         16
  44.9561         16
  44.9747         19
  44.9933         27
  45.0118         29
  45.0304         32
  45.0490         19
  45.0676         23
  45.0861         21
  45.1047         25
  45.1233         16
  45.1419         31
  45.1604         30
  45.1790         28
  45.1976         28
  45.2162         18
  45.2347         28
  45.2533         29
  45.2719         23
  45.2905         20
  45.3091         25
  45.3276         30
  45.3462         29
  45.3648         31
  45.3834         31
  45.4019         27
  45.4205         22
  45.4391         20
  45.4577         27
  45.4762         32
  45.4948         18
  45.5134         29
  45.5320         26
  45.5505         31
  45.5691         31
  45.5877         18
  45.6063         22
  45.6248         25
  45.6434         24
  45.6620         20
  45.6806         27
  45.6991         35
  45.7177         22
  45.7363         26
  45.7549         27
  45.7734         33
  45.7920         31
  45.8106         25
  45.8292         23
  45.8477         32
  45.8663         27
  45.8849         24
  45.9035         24
  45.9220         24
  45.9406         25
  45.9592         26
  45.9778         22
  45.9963         23
  46.0149         16
  46.0335         21
  46.0521         23
  46.0707         24
  46.0892         21
  46.1078         21
  46.1264         22
  46.1450         27
  46.1635         24
  46.1821         32
  46.2007         22
  46.2193         28
  46.2378         21
  46.2564         24
  46.2750         29
  46.2936         23
  46.3121         37
  46.3307         29
  46.3493         24
  46.3679         23
  46.3864         30
  46.4050         25
  46.4236         26
  46.4422         19
  46.4607         22
  46.4793         21
  46.4979         21
  46.5165         26
  46.5350         25
  46.5536         28
  46.5722         24
  46.5908         17
  46.6093         36
  46.6279         30
  46.6465         31
  46.6651         19
  46.6836         21
  46.7022         31
  46.7208         24
  46.7394         32
  46.7579         21
  46.7765         21
  46.7951         28
  46.8137         29
  46.8323         21
  46.8508         26
  46.8694         29
  46.8880         18
  46.9066         25
  46.9251         20
  46.9437         24
  46.9623         27
  46.9809         26
  46.9994         16
  47.0180         23
  47.0366         25
  47.0552         21
  47.0737         28
  47.0923         23
  47.1109         25
  47.1295         32
  47.1480         25
  47.1666         23
  47.1852         33
  47.2038         23
  47.2223         26
  47.2409         30
  47.2595         26
  47.2781         19
  47.2966         23
  47.3152         18
  47.3338         21
  47.3524         23
  47.3709         19
  47.3895         21
  47.4081         21
  47.4267         33
  47.4452         18
  47.4638         27
  47.4824         24
  47.5010         21
  47.5195         26
  47.5381         19
  47.5567         21
  47.5753         27
  47.5939         22
  47.6124         23
  47.6310         21
  47.6496         32
  47.6682         27
  47.6867         36
  47.7053         29
  47.7239         23
  47.7425         26
  47.7610         17
  47.7796         23
  47.7982         22
  47.8168         29
  47.8353         19
  47.8539         21
  47.8725         24
  47.8911         23
  47.9096         32
  47.9282         25
  47.9468         18
  47.9654         27
  47.9839         16
  48.0025         18
  48.0211         20
  48.0397         32
  48.0582         21
  48.0768         19
  48.0954         24
  48.1140         21
  48.1325         22
  48.1511         20
  48.1697         13
  48.1883         21
  48.2068         25
  48.2254         26
  48.2440         21
  48.2626         33
  48.2811         23
  48.2997         20
  48.3183         25
  48.3369         21
  48.3555         21
  48.3740         20
  48.3926         18
  48.4112         21
  48.4298         21
  48.4483         30
  48.4669         29
  48.4855         24
  48.5041         25
  48.5226         21
  48.5412         19
  48.5598         21
  48.5784         28
  48.5969         22
  48.6155         23
  48.6341         24
  48.6527         23
  48.6712         18
  48.6898         28
  48.7084         28
  48.7270         19
  48.7455         25
  48.7641         19
  48.7827         16
  48.8013         21
  48.8198         26
  48.8384         20
  48.8570         18
  48.8756         30
  48.8941         25
  48.9127         28
  48.9313         32
  48.9499         37
  48.9684         34
  48.9870         24
  49.0056         37
  49.0242         22
  49.0427         26
  49.0613         31
  49.0799         33
  49.0985         37
  49.1171         38
  49.1356         30
  49.1542         27
  49.1728         24
  49.1914         21
  49.2099         22
  49.2285         23
  49.2471         24
  49.2657         28
  49.2842         12
  49.3028         29
  49.3214         24
  49.3400         27
  49.3585         16
  49.3771         18
  49.3957         28
  49.4143         22
  49.4328         21
  49.4514         23
  49.4700         17
  49.4886         20
  49.5071         20
  49.5257         24
  49.5443         16
  49.5629         20
  49.5814         26
  49.6000         31
  49.6186         17
  49.6372         30
  49.6557         24
  49.6743         16
  49.6929         18
  49.7115         20
  49.7300         24
  49.7486         15
  49.7672         30
  49.7858         16
  49.8043         24
  49.8229         25
  49.8415         20
  49.8601         20
  49.8786         27
  49.8972         20
  49.9158         29
  49.9344         11
  49.9530         28
  49.9715         30
  49.9901         23
  50.0087         30
  50.0273         22
  50.0458         23
  50.0644         31
  50.0830         22
  50.1016         22
  50.1201         30
  50.1387         28
  50.1573         20
  50.1759         26
  50.1944         22
  50.2130         26
  50.2316         37
  50.2502         25
  50.2687         26
  50.2873         23
  50.3059         27
  50.3245         29
  50.3430         24
  50.3616         24
  50.3802         26
  50.3988         12
  50.4173         19
  50.4359         20
  50.4545         15
  50.4731         26
  50.4916         24
  50.5102         18
  50.5288         23
  50.5474         24
  50.5659         32
  50.5845         19
  50.6031         17
  50.6217         18
  50.6402         24
  50.6588         26
  50.6774         15
  50.6960         19
  50.7146         23
  50.7331         22
  50.7517         12
  50.7703          9
  50.7889         20
  50.8074         25
  50.8260         21
  50.8446         22
  50.8632         26
  50.8817         18
  50.9003         17
  50.9189         22
  50.9375         12
  50.9560         27
  50.9746         25
  50.9932         22
  51.0118         16
  51.0303         27
  51.0489         20
  51.0675         23
  51.0861         31
  51.1046         15
  51.1232         15
  51.1418         19
  51.1604         24
  51.1789         20
  51.1975         19
  51.2161         28
  51.2347         21
  51.2532         16
  51.2718         25
  51.2904         21
  51.3090         24
  51.3275         28
  51.3461         27
  51.3647         17
  51.3833         37
  51.4018         30
  51.4204         22
  51.4390         23
  51.4576         19
  51.4762         22
  51.4947         23
  51.5133         20
  51.5319         22
  51.5505         19
  51.5690         27
  51.5876         31
  51.6062         26
  51.6248         22
  51.6433         24
  51.6619         24
  51.6805         15
  51.6991         22
  51.7176         26
  51.7362         23
  51.7548         21
  51.7734         30
  51.7919         22
  51.8105         25
  51.8291         25
  51.8477         24
  51.8662         23
  51.8848         26
  51.9034         25
  51.9220         23
  51.9405         23
  51.9591         18
  51.9777         30
  51.9963         17
  52.0148         24
  52.0334         21
  52.0520         27
  52.0706         29
  52.0891         23
  52.1077         28
  52.1263         26
  52.1449         25
  52.1634         25
  52.1820         28
  52.2006         19
  52.2192         21
  52.2378         17
  52.2563         20
  52.2749         28
  52.2935         18
  52.3121         15
  52.3306         17
  52.3492         26
  52.3678         20
  52.3864         22
  52.4049         16
  52.4235         24
  52.4421         23
  52.4607         17
  52.4792         19
  52.4978         14
  52.5164         21
  52.5350         18
  52.5535         27
  52.5721         22
  52.5907         22
  52.6093         14
  52.6278         22
  52.6464         24
  52.6650         23
  52.6836         25
  52.7021         21
  52.7207         27
  52.7393         23
  52.7579         19
  52.7764         14
  52.7950         23
  52.8136         18
  52.8322         22
  52.8507         20
  52.8693         23
  52.8879         25
  52.9065         17
  52.9250         28
  52.9436         14
  52.9622         28
  52.9808         28
  52.9994         10
  53.0179         35
  53.0365         25
  53.0551         20
  53.0737         18
  53.0922         20
  53.1108         26
  53.1294         22
  53.1480         21
  53.1665         24
  53.1851         13
  53.2037         28
  53.2223         29
  53.2408         23
  53.2594         20
  53.2780         15
  53.2966         14
  53.3151         27
  53.3337         24
  53.3523         16
  53.3709         26
  53.3894         24
  53.4080         21
  53.4266         25
  53.4452         21
  53.4637         21
  53.4823         20
  53.5009         13
  53.5195         15
  53.5380         20
  53.5566         18
  53.5752         27
  53.5938         15
  53.6123         20
  53.6309         20
  53.6495         19
  53.6681         17
  53.6866         23
  53.7052         23
  53.7238         24
  53.7424         19
  53.7610         16
  53.7795         14
  53.7981         15
  53.8167         17
  53.8353         21
  53.8538         20
  53.8724         30
  53.8910         21
  53.9096         21
  53.9281         22
  53.9467         23
  53.9653         14
  53.9839         21
  54.0024         20
  54.0210         27
  54.0396         24
  54.0582         24
  54.0767         26
  54.0953         23
  54.1139         21
  54.1325         30
  54.1510         26
  54.1696         25
  54.1882         30
  54.2068         13
  54.2253         26
  54.2439         24
  54.2625         24
  54.2811         12
  54.2996         17
  54.3182         19
  54.3368         12
  54.3554         19
  54.3739         14
  54.3925         21
  54.4111         18
  54.4297         22
  54.4482         25
  54.4668         21
  54.4854         28
  54.5040         18
  54.5225         24
  54.5411         31
  54.5597         16
  54.5783         27
  54.5969         17
  54.6154         24
  54.6340         21
  54.6526         17
  54.6712         17
  54.6897         20
  54.7083         19
  54.7269         17
  54.7455         19
  54.7640         19
  54.7826         26
  54.8012         19
  54.8198         21
  54.8383         20
  54.8569         16
  54.8755         23
  54.8941         14
  54.9126         17
  54.9312         15
  54.9498         29
  54.9684         27
  54.9869         20
  55.0055         15
  55.0241         20
  55.0427         19
  55.0612         12
  55.0798         18
  55.0984         20
  55.1170         14
  55.1355         17
  55.1541         22
  55.1727         18
  55.1913         16
  55.2098         17
  55.2284         19
  55.2470         22
  55.2656         24
  55.2841         18
  55.3027         18
  55.3213         21
  55.3399         20
  55.3585         24
  55.3770         17
  55.3956         21
  55.4142         22
  55.4328         20
  55.4513         12
  55.4699         28
  55.4885         21
  55.5071         14
  55.5256         21
  55.5442         15
  55.5628         24
  55.5814         23
  55.5999         18
  55.6185         26
  55.6371         22
  55.6557         19
  55.6742         23
  55.6928         26
  55.7114         25
  55.7300         18
  55.7485         19
  55.7671         25
  55.7857         26
  55.8043         27
  55.8228         23
  55.8414         24
  55.8600         24
  55.8786         21
  55.8971         25
  55.9157         17
  55.9343         17
  55.9529         21
  55.9714         22
  55.9900         20
  56.0086         25
  56.0272         12
  56.0457         30
  56.0643         27
  56.0829         17
  56.1015         27
  56.1201         29
  56.1386         29
  56.1572         19
  56.1758         28
  56.1944         25
  56.2129         20
  56.2315         27
  56.2501         22
  56.2687         21
  56.2872         23
  56.3058         10
  56.3244         34
  56.3430         20
  56.3615         20
  56.3801         13
  56.3987         32
  56.4173         24
  56.4358         26
  56.4544         22
  56.4730         29
  56.4916         24
  56.5101         24
  56.5287         21
  56.5473         25
  56.5659         13
  56.5844         18
  56.6030         28
  56.6216         15
  56.6402         13
  56.6587         22
  56.6773         19
  56.6959         25
  56.7145         18
  56.7330         16
  56.7516         21
  56.7702         20
  56.7888         25
  56.8073         29
  56.8259         17
  56.8445         15
  56.8631         17
  56.8817         16
  56.9002         27
  56.9188         29
  56.9374         18
  56.9560         21
  56.9745         15
  56.9931         21
  57.0117         20
  57.0303         17
  57.0488         21
  57.0674         19
  57.0860         19
  57.1046         20
  57.1231         12
  57.1417         26
  57.1603         22
  57.1789         21
  57.1974         20
  57.2160         16
  57.2346         19
  57.2532         20
  57.2717         21
  57.2903         16
  57.3089         15
  57.3275         18
  57.3460         25
  57.3646         21
  57.3832         13
  57.4018         16
  57.4203         20
  57.4389         17
  57.4575         18
  57.4761         27
  57.4946         21
  57.5132         22
  57.5318         19
  57.5504         24
  57.5689         14
  57.5875         20
  57.6061         17
  57.6247         13
  57.6433         24
  57.6618         24
  57.6804         25
  57.6990         29
  57.7176         24
  57.7361         22
  57.7547         14
  57.7733         19
  57.7919         14
  57.8104         22
  57.8290         24
  57.8476         18
  57.8662         17
  57.8847         16
  57.9033         11
  57.9219         26
  57.9405         22
  57.9590         13
  57.9776         18
  57.9962         19
  58.0148         18
  58.0333         28
  58.0519         23
  58.0705         22
  58.0891         25
  58.1076         14
  58.1262         23
  58.1448         23
  58.1634         19
  58.1819         15
  58.2005         17
  58.2191         27
  58.2377         12
  58.2562         23
  58.2748         21
  58.2934         11
  58.3120         16
  58.3305         19
  58.3491         19
  58.3677         15
  58.3863         22
  58.4049         20
  58.4234         15
  58.4420         25
  58.4606         24
  58.4792         20
  58.4977         22
  58.5163         21
  58.5349         22
  58.5535         18
  58.5720         21
  58.5906         24
  58.6092         19
  58.6278         29
  58.6463         18
  58.6649         15
  58.6835         19
  58.7021         23
  58.7206         19
  58.7392         22
  58.7578         17
  58.7764         21
  58.7949         23
  58.8135         17
  58.8321         15
  58.8507         19
  58.8692         17
  58.8878         18
  58.9064         19
  58.9250         13
  58.9435         24
  58.9621         19
  58.9807         19
  58.9993         23
  59.0178         27
  59.0364         22
  59.0550         25
  59.0736         27
  59.0921         23
  59.1107         20
  59.1293         18
  59.1479         23
  59.1664         16
  59.1850         18
  59.2036         22
  59.2222         23
  59.2408         16
  59.2593         21
  59.2779         22
  59.2965         23
  59.3151         27
  59.3336         21
  59.3522         16
  59.3708         25
  59.3894         24
  59.4079         29
  59.4265         19
  59.4451         23
  59.4637         16
  59.4822         25
  59.5008         17
  59.5194         18
  59.5380         24
  59.5565         17
  59.5751         16
  59.5937         15
  59.6123         24
  59.6308         23
  59.6494         14
  59.6680         14
  59.6866         23
  59.7051         23
  59.7237         15
  59.7423         24
  59.7609         14
  59.7794         21
  59.7980         17
  59.8166         15
  59.8352         19
  59.8537         23
  59.8723         20
  59.8909         24
  59.9095         24
  59.9280         18
  59.9466         15
  59.9652         13
  59.9838         22
  60.0024         24
