; (content of file Y:\Sam\Apurva-07-20-2022\puck4\ML_20220718_54_SJD_4_LaB6-2min.raw)
_FILEVERSION = 3
_SAMPLE = ML_20220718_54_SJD_4_LaB6-2min
_+SAMPLE = 
_SITE = USA
_USER = Administrator
_GONIOMETER_CODE = 20
; Goniometer : D8 theta/2theta, stage : Unknown
_ATTACHMENTS_CODE = 0
_GONIOMETER_RADIUS = 200.5
_FIXED_DIVSLIT = 0.6
_FIXED_SAMPLESLIT = 0
_SOLLER_SLITS = 2
_FIXED_DETSLIT = 9.55
_MONOCHROMATOR = 0
; Incident beam monochromator : None
_SOLLER_SLITS_2 = N
_THIN_FILM = N
_BETA_FILTER = Y
_FIXED_ANTISLIT = 5.89
_ANALYZER_CODE = 0
; Received beam analyzer : None
_DATEMEASURED = "26-Jul-2022 12:37:12"
_WL_UNIT = A
_WL1 = 1.5406
_WL2 = 1.54439
_WL3 = 1.39222
_WLRATIO = 0.5
_ANODE = Cu
_V4_INF_CREATOR = XRDWizard
_V4_INF_CREATOR_VERSION = V2.9.0.22
_V4_INF_WIZARD_VERSION = V2.9.0.22
_V4_INF_WIZARD_ADDINS = V2.9.0.22
_V4_INF_WIZARD_DOCTYPE = XRD
_V4_INF_OSUSER = McQueenLab
_V4_INF_USER = Administrator
_V4_INF_SITE = USA
_V4_INF_SAMPLEID = ML_20220718_54_SJD_4_LaB6-2min

; Data for range 1
_DRIVE = COUPLED
_STEPTIME = 5.64
_STEPSIZE = 0.0185756
_STEPMODE = C
_START = 5
_THETA = 2.5
_2THETA = 5
_KHI = 0
_PHI = 0
_X = 0
_Y = 0
_Z = 0
_DETECTOR = 5
; Detector type : Unknown
_DETECTORSLIT = unkn
_AUX1 = 0
_AUX2 = 0
_AUX3 = 0
_TIMESTARTED = 15
_TEMP_RATE = -1
_TEMP_DELAY = -1
_KV = 40
_MA = 40
_RANGE_WL = 1.5406
_3DPLANE = 0
_V4_ADDITIONALDETECTOR = 257
_V4_PSD2THETA = 3.3706
_V4_PSDCHANNEL1 = 0
_V4_PSDAPERTURE = 12.68
_V4_PSDTYPE = 5
_V4_PSDFIXED = 0
_V4_COUNTERS_MASK = 4096
_V4_DRIVES_MASK = 0
_V4_ENCODERS_MASK = 0
_2THETACOUNTS = 1
; 2THETA  PSD
   5.0000        114
   5.0186        109
   5.0372        143
   5.0557        127
   5.0743        147
   5.0929        111
   5.1115        136
   5.1300        118
   5.1486        115
   5.1672        118
   5.1858        132
   5.2043        123
   5.2229        127
   5.2415        138
   5.2601        117
   5.2786        118
   5.2972        125
   5.3158        115
   5.3344        112
   5.3529        122
   5.3715        106
   5.3901        122
   5.4087        121
   5.4272        110
   5.4458         98
   5.4644        129
   5.4830        121
   5.5015        115
   5.5201        120
   5.5387        112
   5.5573        106
   5.5758         87
   5.5944        106
   5.6130        102
   5.6316         93
   5.6501        112
   5.6687        110
   5.6873         92
   5.7059        102
   5.7244        100
   5.7430        123
   5.7616         92
   5.7802        105
   5.7988        103
   5.8173         81
   5.8359        103
   5.8545        135
   5.8731        115
   5.8916         85
   5.9102         93
   5.9288        100
   5.9474        102
   5.9659         97
   5.9845         96
   6.0031         89
   6.0217         97
   6.0402         97
   6.0588        105
   6.0774         87
   6.0960         90
   6.1145         93
   6.1331         95
   6.1517         76
   6.1703        102
   6.1888         90
   6.2074         94
   6.2260         89
   6.2446         88
   6.2631         74
   6.2817         94
   6.3003         90
   6.3189         90
   6.3374         95
   6.3560         94
   6.3746        103
   6.3932         90
   6.4117         91
   6.4303         96
   6.4489         94
   6.4675         75
   6.4860         95
   6.5046         95
   6.5232         99
   6.5418         82
   6.5604         74
   6.5789         84
   6.5975         84
   6.6161         76
   6.6347         88
   6.6532         70
   6.6718         83
   6.6904         80
   6.7090        104
   6.7275        104
   6.7461         82
   6.7647         87
   6.7833         73
   6.8018         80
   6.8204         88
   6.8390         84
   6.8576         83
   6.8761         91
   6.8947         85
   6.9133         94
   6.9319         80
   6.9504         78
   6.9690         79
   6.9876         83
   7.0062         78
   7.0247         76
   7.0433         63
   7.0619         81
   7.0805         78
   7.0990         80
   7.1176         97
   7.1362         68
   7.1548         85
   7.1733         82
   7.1919         80
   7.2105         77
   7.2291         66
   7.2476         69
   7.2662         81
   7.2848         81
   7.3034         82
   7.3220         63
   7.3405         83
   7.3591         93
   7.3777         71
   7.3963         82
   7.4148         79
   7.4334         86
   7.4520         76
   7.4706        105
   7.4891         90
   7.5077         86
   7.5263         83
   7.5449         53
   7.5634         88
   7.5820         80
   7.6006         81
   7.6192         77
   7.6377         88
   7.6563         96
   7.6749         89
   7.6935         92
   7.7120         81
   7.7306         90
   7.7492         91
   7.7678        100
   7.7863         99
   7.8049         81
   7.8235         89
   7.8421        107
   7.8606        108
   7.8792         84
   7.8978         80
   7.9164         82
   7.9349         83
   7.9535         73
   7.9721         86
   7.9907        102
   8.0092         67
   8.0278         90
   8.0464         97
   8.0650         95
   8.0835         94
   8.1021         88
   8.1207         95
   8.1393         79
   8.1579         82
   8.1764         95
   8.1950         87
   8.2136        109
   8.2322         81
   8.2507        100
   8.2693        105
   8.2879         92
   8.3065        105
   8.3250        114
   8.3436        103
   8.3622         87
   8.3808        101
   8.3993         97
   8.4179        112
   8.4365         98
   8.4551         96
   8.4736        107
   8.4922        101
   8.5108         96
   8.5294        102
   8.5479         98
   8.5665        106
   8.5851         94
   8.6037         96
   8.6222         98
   8.6408        102
   8.6594         92
   8.6780         96
   8.6965        117
   8.7151        106
   8.7337         89
   8.7523        122
   8.7708        106
   8.7894        106
   8.8080         93
   8.8266        114
   8.8451         90
   8.8637        110
   8.8823        108
   8.9009        103
   8.9195        107
   8.9380        136
   8.9566        110
   8.9752        103
   8.9938         95
   9.0123         92
   9.0309        105
   9.0495        100
   9.0681        113
   9.0866        101
   9.1052         98
   9.1238        105
   9.1424         90
   9.1609        103
   9.1795        123
   9.1981         97
   9.2167         95
   9.2352        100
   9.2538        105
   9.2724        109
   9.2910        111
   9.3095        110
   9.3281        110
   9.3467        107
   9.3653        109
   9.3838        108
   9.4024        110
   9.4210        104
   9.4396        102
   9.4581        117
   9.4767        105
   9.4953        108
   9.5139        112
   9.5324        111
   9.5510         98
   9.5696        117
   9.5882         90
   9.6067        109
   9.6253        102
   9.6439        104
   9.6625        100
   9.6811        111
   9.6996        110
   9.7182        105
   9.7368        105
   9.7554        111
   9.7739        137
   9.7925        105
   9.8111         95
   9.8297        126
   9.8482        131
   9.8668        120
   9.8854        108
   9.9040        120
   9.9225        108
   9.9411        115
   9.9597        112
   9.9783        120
   9.9968        122
  10.0154        107
  10.0340         99
  10.0526        104
  10.0711        106
  10.0897        124
  10.1083        121
  10.1269        123
  10.1454        116
  10.1640        120
  10.1826        135
  10.2012        126
  10.2197        101
  10.2383        116
  10.2569        110
  10.2755        114
  10.2940        117
  10.3126        118
  10.3312        111
  10.3498        115
  10.3683        124
  10.3869        108
  10.4055        111
  10.4241        118
  10.4427        107
  10.4612        109
  10.4798        126
  10.4984        105
  10.5170        112
  10.5355        116
  10.5541        107
  10.5727        119
  10.5913        130
  10.6098        121
  10.6284        102
  10.6470        106
  10.6656        128
  10.6841        119
  10.7027        110
  10.7213        117
  10.7399        135
  10.7584        116
  10.7770        102
  10.7956        113
  10.8142        106
  10.8327        102
  10.8513        137
  10.8699        121
  10.8885        116
  10.9070        126
  10.9256        111
  10.9442        139
  10.9628        120
  10.9813        123
  10.9999        106
  11.0185        134
  11.0371        114
  11.0556        113
  11.0742        129
  11.0928        124
  11.1114        133
  11.1299        125
  11.1485        116
  11.1671         93
  11.1857        118
  11.2043        117
  11.2228        111
  11.2414        113
  11.2600        132
  11.2786        106
  11.2971        106
  11.3157        121
  11.3343        121
  11.3529        122
  11.3714        130
  11.3900        136
  11.4086        112
  11.4272        113
  11.4457        118
  11.4643        127
  11.4829        120
  11.5015        106
  11.5200        130
  11.5386        129
  11.5572         98
  11.5758        112
  11.5943        110
  11.6129        124
  11.6315        102
  11.6501        117
  11.6686        106
  11.6872        113
  11.7058        104
  11.7244        107
  11.7429         98
  11.7615        114
  11.7801        119
  11.7987        100
  11.8172        124
  11.8358        123
  11.8544        110
  11.8730        123
  11.8915        121
  11.9101        100
  11.9287        119
  11.9473        125
  11.9659        108
  11.9844        125
  12.0030        103
  12.0216         87
  12.0402        111
  12.0587         94
  12.0773         89
  12.0959        124
  12.1145        108
  12.1330        103
  12.1516        108
  12.1702        132
  12.1888        130
  12.2073        112
  12.2259         94
  12.2445        111
  12.2631        136
  12.2816        130
  12.3002        101
  12.3188         91
  12.3374        136
  12.3559        114
  12.3745        107
  12.3931        120
  12.4117        125
  12.4302        111
  12.4488         99
  12.4674        117
  12.4860        117
  12.5045        115
  12.5231        102
  12.5417         92
  12.5603        101
  12.5788        103
  12.5974        118
  12.6160         94
  12.6346         97
  12.6531        104
  12.6717        106
  12.6903        113
  12.7089        114
  12.7274        110
  12.7460         92
  12.7646        108
  12.7832        113
  12.8018        106
  12.8203        113
  12.8389        102
  12.8575         81
  12.8761        114
  12.8946        128
  12.9132        107
  12.9318        112
  12.9504         84
  12.9689         87
  12.9875         69
  13.0061        109
  13.0247        106
  13.0432         89
  13.0618        116
  13.0804         95
  13.0990        128
  13.1175        111
  13.1361        121
  13.1547         87
  13.1733        104
  13.1918        100
  13.2104         98
  13.2290         90
  13.2476         84
  13.2661         94
  13.2847         92
  13.3033         79
  13.3219        113
  13.3404         91
  13.3590         97
  13.3776         92
  13.3962         98
  13.4147        113
  13.4333         85
  13.4519         93
  13.4705        104
  13.4890        108
  13.5076         88
  13.5262        103
  13.5448         75
  13.5634        107
  13.5819        109
  13.6005         85
  13.6191         78
  13.6377        110
  13.6562         87
  13.6748         94
  13.6934         88
  13.7120         85
  13.7305         96
  13.7491         99
  13.7677        103
  13.7863        101
  13.8048        103
  13.8234         92
  13.8420         97
  13.8606         88
  13.8791         81
  13.8977        105
  13.9163         82
  13.9349         71
  13.9534         94
  13.9720         81
  13.9906         74
  14.0092         89
  14.0277        106
  14.0463         79
  14.0649         89
  14.0835         92
  14.1020        108
  14.1206         92
  14.1392         74
  14.1578         80
  14.1763        103
  14.1949        103
  14.2135         87
  14.2321         77
  14.2506         89
  14.2692         84
  14.2878         81
  14.3064         88
  14.3250         85
  14.3435         96
  14.3621         81
  14.3807         95
  14.3993         65
  14.4178         86
  14.4364         82
  14.4550         90
  14.4736         95
  14.4921         82
  14.5107         89
  14.5293         88
  14.5479         83
  14.5664         80
  14.5850         94
  14.6036         91
  14.6222         83
  14.6407         81
  14.6593         91
  14.6779         85
  14.6965         78
  14.7150         81
  14.7336         81
  14.7522         88
  14.7708         84
  14.7893         96
  14.8079         79
  14.8265         82
  14.8451         92
  14.8636         87
  14.8822         68
  14.9008         78
  14.9194         83
  14.9379         80
  14.9565         78
  14.9751         84
  14.9937         86
  15.0122         95
  15.0308         85
  15.0494         64
  15.0680         66
  15.0866         85
  15.1051         76
  15.1237         81
  15.1423         75
  15.1609         69
  15.1794         64
  15.1980         89
  15.2166         88
  15.2352         84
  15.2537         77
  15.2723         78
  15.2909         84
  15.3095        106
  15.3280         81
  15.3466         94
  15.3652         86
  15.3838         79
  15.4023         81
  15.4209         84
  15.4395         73
  15.4581         69
  15.4766         82
  15.4952         87
  15.5138         70
  15.5324         90
  15.5509         69
  15.5695         74
  15.5881         80
  15.6067         83
  15.6252         81
  15.6438         74
  15.6624         64
  15.6810         65
  15.6995        100
  15.7181         96
  15.7367         84
  15.7553         68
  15.7738         81
  15.7924         70
  15.8110         87
  15.8296         90
  15.8482         80
  15.8667         70
  15.8853         76
  15.9039         77
  15.9225         87
  15.9410         78
  15.9596         91
  15.9782         74
  15.9968         84
  16.0153         70
  16.0339         71
  16.0525         82
  16.0711         75
  16.0896         77
  16.1082         83
  16.1268         76
  16.1454         78
  16.1639         79
  16.1825         76
  16.2011         81
  16.2197         74
  16.2382         88
  16.2568         69
  16.2754         67
  16.2940         66
  16.3125         73
  16.3311         59
  16.3497        115
  16.3683         73
  16.3868         73
  16.4054         81
  16.4240         99
  16.4426         79
  16.4611         81
  16.4797         86
  16.4983         81
  16.5169         84
  16.5354         80
  16.5540         93
  16.5726         63
  16.5912         77
  16.6097         79
  16.6283         75
  16.6469         83
  16.6655         81
  16.6841         79
  16.7026         83
  16.7212         64
  16.7398         64
  16.7584         92
  16.7769         75
  16.7955         86
  16.8141         81
  16.8327         91
  16.8512         76
  16.8698         81
  16.8884         95
  16.9070         67
  16.9255         72
  16.9441         89
  16.9627         79
  16.9813         86
  16.9998         81
  17.0184         60
  17.0370         92
  17.0556         79
  17.0741         81
  17.0927         78
  17.1113         76
  17.1299         80
  17.1484         87
  17.1670         80
  17.1856         86
  17.2042         73
  17.2227         74
  17.2413         67
  17.2599         63
  17.2785         78
  17.2970         92
  17.3156         83
  17.3342         83
  17.3528         80
  17.3713         81
  17.3899         75
  17.4085         88
  17.4271         73
  17.4457         95
  17.4642         74
  17.4828         73
  17.5014         59
  17.5200         67
  17.5385         77
  17.5571         79
  17.5757         80
  17.5943         66
  17.6128         95
  17.6314         90
  17.6500         71
  17.6686         85
  17.6871         81
  17.7057         83
  17.7243         75
  17.7429         88
  17.7614        102
  17.7800         79
  17.7986         74
  17.8172         73
  17.8357         75
  17.8543         69
  17.8729         84
  17.8915         61
  17.9100         76
  17.9286         74
  17.9472         87
  17.9658         81
  17.9843         91
  18.0029         82
  18.0215         80
  18.0401         90
  18.0586         90
  18.0772         74
  18.0958         83
  18.1144         80
  18.1329         77
  18.1515         70
  18.1701         68
  18.1887         84
  18.2073         84
  18.2258         75
  18.2444         77
  18.2630         93
  18.2816         73
  18.3001         82
  18.3187         83
  18.3373         79
  18.3559         70
  18.3744         81
  18.3930         72
  18.4116         81
  18.4302         74
  18.4487         88
  18.4673         96
  18.4859        102
  18.5045         97
  18.5230         93
  18.5416         75
  18.5602         79
  18.5788         86
  18.5973         84
  18.6159         72
  18.6345         74
  18.6531         81
  18.6716         89
  18.6902         96
  18.7088         86
  18.7274         96
  18.7459         64
  18.7645         94
  18.7831         73
  18.8017         80
  18.8202         97
  18.8388         58
  18.8574         70
  18.8760         72
  18.8945         82
  18.9131         76
  18.9317         82
  18.9503         66
  18.9689         79
  18.9874         78
  19.0060         87
  19.0246         86
  19.0432        100
  19.0617         90
  19.0803        101
  19.0989         75
  19.1175         83
  19.1360         75
  19.1546         76
  19.1732         78
  19.1918         90
  19.2103         96
  19.2289         85
  19.2475         80
  19.2661         80
  19.2846         83
  19.3032         97
  19.3218         81
  19.3404         82
  19.3589         66
  19.3775         97
  19.3961         74
  19.4147         84
  19.4332         96
  19.4518         89
  19.4704         83
  19.4890        101
  19.5075        101
  19.5261         91
  19.5447         90
  19.5633         78
  19.5818         88
  19.6004         93
  19.6190         98
  19.6376         84
  19.6561         67
  19.6747         77
  19.6933         95
  19.7119         83
  19.7305         85
  19.7490         96
  19.7676         96
  19.7862        101
  19.8048         95
  19.8233         66
  19.8419         86
  19.8605         79
  19.8791         69
  19.8976         96
  19.9162         99
  19.9348         91
  19.9534        102
  19.9719         88
  19.9905         87
  20.0091         88
  20.0277         85
  20.0462         83
  20.0648         83
  20.0834         90
  20.1020        102
  20.1205        101
  20.1391         95
  20.1577         81
  20.1763         84
  20.1948         89
  20.2134         92
  20.2320        101
  20.2506         92
  20.2691         91
  20.2877        104
  20.3063         95
  20.3249         88
  20.3434         81
  20.3620        104
  20.3806         75
  20.3992         75
  20.4177        107
  20.4363         82
  20.4549         81
  20.4735         96
  20.4921        112
  20.5106         98
  20.5292         89
  20.5478        102
  20.5664         88
  20.5849         83
  20.6035         85
  20.6221         82
  20.6407        106
  20.6592         97
  20.6778         96
  20.6964         91
  20.7150         93
  20.7335         92
  20.7521        106
  20.7707         95
  20.7893         69
  20.8078         91
  20.8264         79
  20.8450         94
  20.8636         80
  20.8821         97
  20.9007         84
  20.9193         97
  20.9379         96
  20.9564         70
  20.9750        113
  20.9936         88
  21.0122         89
  21.0307         90
  21.0493         82
  21.0679         89
  21.0865         91
  21.1050        111
  21.1236         98
  21.1422        102
  21.1608        111
  21.1793        113
  21.1979        147
  21.2165        149
  21.2351        195
  21.2537        166
  21.2722        150
  21.2908        146
  21.3094        131
  21.3280        197
  21.3465        237
  21.3651        273
  21.3837        190
  21.4023        176
  21.4208        202
  21.4394        142
  21.4580        119
  21.4766        106
  21.4951         96
  21.5137         98
  21.5323         95
  21.5509         98
  21.5694        107
  21.5880         89
  21.6066         86
  21.6252        117
  21.6437        101
  21.6623        103
  21.6809         88
  21.6995         95
  21.7180         86
  21.7366        111
  21.7552         91
  21.7738         81
  21.7923         87
  21.8109         90
  21.8295         89
  21.8481         86
  21.8666         99
  21.8852         83
  21.9038        106
  21.9224         97
  21.9409         88
  21.9595         94
  21.9781         84
  21.9967         90
  22.0152        106
  22.0338         92
  22.0524        110
  22.0710         94
  22.0896        111
  22.1081         91
  22.1267         77
  22.1453        103
  22.1639         97
  22.1824         86
  22.2010         99
  22.2196        100
  22.2382        106
  22.2567        100
  22.2753         89
  22.2939        102
  22.3125         82
  22.3310         74
  22.3496         89
  22.3682         91
  22.3868         91
  22.4053         83
  22.4239         89
  22.4425        119
  22.4611         98
  22.4796         96
  22.4982         87
  22.5168         95
  22.5354        104
  22.5539        103
  22.5725        100
  22.5911        103
  22.6097         83
  22.6282         96
  22.6468        103
  22.6654        104
  22.6840         85
  22.7025         95
  22.7211         85
  22.7397        101
  22.7583        105
  22.7768        110
  22.7954        109
  22.8140        134
  22.8326         91
  22.8512        105
  22.8697        105
  22.8883         91
  22.9069        111
  22.9255        116
  22.9440        121
  22.9626         98
  22.9812         93
  22.9998        106
  23.0183        113
  23.0369        101
  23.0555        100
  23.0741         97
  23.0926         96
  23.1112         93
  23.1298         98
  23.1484        115
  23.1669         89
  23.1855        102
  23.2041         83
  23.2227         86
  23.2412        103
  23.2598        107
  23.2784        103
  23.2970         87
  23.3155        105
  23.3341         99
  23.3527         97
  23.3713         99
  23.3898        104
  23.4084         87
  23.4270         99
  23.4456         92
  23.4641         93
  23.4827         93
  23.5013        126
  23.5199         93
  23.5384         85
  23.5570         90
  23.5756        104
  23.5942         88
  23.6128         87
  23.6313        117
  23.6499         93
  23.6685         84
  23.6871         94
  23.7056        107
  23.7242         86
  23.7428         86
  23.7614         97
  23.7799        101
  23.7985        105
  23.8171        113
  23.8357        106
  23.8542         83
  23.8728        107
  23.8914        119
  23.9100         99
  23.9285        108
  23.9471        107
  23.9657         95
  23.9843         92
  24.0028        101
  24.0214        105
  24.0400        125
  24.0586        110
  24.0771        102
  24.0957        105
  24.1143        101
  24.1329         97
  24.1514         94
  24.1700         96
  24.1886         90
  24.2072        106
  24.2257        109
  24.2443        108
  24.2629         97
  24.2815        113
  24.3000        114
  24.3186        103
  24.3372         98
  24.3558        121
  24.3744         97
  24.3929        108
  24.4115        103
  24.4301        105
  24.4487         95
  24.4672         81
  24.4858        106
  24.5044         93
  24.5230        102
  24.5415        103
  24.5601        102
  24.5787        108
  24.5973         81
  24.6158        102
  24.6344        103
  24.6530         93
  24.6716        107
  24.6901        102
  24.7087         91
  24.7273        105
  24.7459         85
  24.7644         96
  24.7830         95
  24.8016         91
  24.8202         89
  24.8387         98
  24.8573         97
  24.8759         93
  24.8945         91
  24.9130        101
  24.9316        100
  24.9502        103
  24.9688         95
  24.9873        100
  25.0059         99
  25.0245         82
  25.0431         83
  25.0616         89
  25.0802         92
  25.0988         91
  25.1174         98
  25.1360        118
  25.1545        106
  25.1731         97
  25.1917        100
  25.2103        113
  25.2288         99
  25.2474         95
  25.2660        112
  25.2846        100
  25.3031        104
  25.3217        102
  25.3403         88
  25.3589         93
  25.3774        110
  25.3960         78
  25.4146         83
  25.4332        101
  25.4517         94
  25.4703         92
  25.4889         82
  25.5075         82
  25.5260         85
  25.5446         89
  25.5632         80
  25.5818        102
  25.6003        103
  25.6189        105
  25.6375        109
  25.6561        104
  25.6746        123
  25.6932        112
  25.7118         96
  25.7304         83
  25.7489        105
  25.7675         98
  25.7861         85
  25.8047         78
  25.8232         87
  25.8418        101
  25.8604         97
  25.8790        102
  25.8976        114
  25.9161         95
  25.9347         97
  25.9533         95
  25.9719         90
  25.9904         73
  26.0090         90
  26.0276        108
  26.0462        105
  26.0647        102
  26.0833        107
  26.1019         90
  26.1205        100
  26.1390         93
  26.1576        107
  26.1762         87
  26.1948        101
  26.2133        110
  26.2319         88
  26.2505         98
  26.2691         87
  26.2876         81
  26.3062         91
  26.3248         92
  26.3434        100
  26.3619        113
  26.3805         82
  26.3991         89
  26.4177        109
  26.4362         90
  26.4548         85
  26.4734         83
  26.4920         90
  26.5105         83
  26.5291         98
  26.5477         98
  26.5663         95
  26.5848         90
  26.6034        104
  26.6220         91
  26.6406         77
  26.6591        102
  26.6777         92
  26.6963        102
  26.7149        105
  26.7335        102
  26.7520         84
  26.7706        109
  26.7892        102
  26.8078         96
  26.8263         97
  26.8449         81
  26.8635         89
  26.8821         94
  26.9006         82
  26.9192         93
  26.9378         85
  26.9564         86
  26.9749         91
  26.9935         93
  27.0121        109
  27.0307        110
  27.0492         93
  27.0678         88
  27.0864         98
  27.1050        100
  27.1235         97
  27.1421         98
  27.1607        111
  27.1793        124
  27.1978        122
  27.2164        105
  27.2350        109
  27.2536        113
  27.2721        114
  27.2907        105
  27.3093         94
  27.3279         83
  27.3464         99
  27.3650         81
  27.3836         92
  27.4022         76
  27.4207         95
  27.4393         82
  27.4579        103
  27.4765        106
  27.4951         93
  27.5136        108
  27.5322         75
  27.5508         95
  27.5694         82
  27.5879         85
  27.6065        104
  27.6251         74
  27.6437         86
  27.6622         92
  27.6808         99
  27.6994         81
  27.7180         89
  27.7365         83
  27.7551         87
  27.7737         78
  27.7923         99
  27.8108         95
  27.8294         84
  27.8480         81
  27.8666         90
  27.8851         82
  27.9037         87
  27.9223         87
  27.9409        110
  27.9594         74
  27.9780         67
  27.9966         76
  28.0152         80
  28.0337         89
  28.0523         90
  28.0709         77
  28.0895         88
  28.1080         99
  28.1266         81
  28.1452         90
  28.1638         85
  28.1823         93
  28.2009         84
  28.2195         78
  28.2381         73
  28.2567         91
  28.2752         65
  28.2938        102
  28.3124         88
  28.3310         82
  28.3495         86
  28.3681         91
  28.3867         86
  28.4053         93
  28.4238         75
  28.4424         95
  28.4610         88
  28.4796         85
  28.4981         79
  28.5167         75
  28.5353         82
  28.5539         79
  28.5724         94
  28.5910         70
  28.6096         66
  28.6282         90
  28.6467         83
  28.6653         74
  28.6839         75
  28.7025         68
  28.7210         84
  28.7396         81
  28.7582         81
  28.7768         90
  28.7953         72
  28.8139         72
  28.8325         72
  28.8511         84
  28.8696         83
  28.8882         87
  28.9068         84
  28.9254         77
  28.9439         76
  28.9625         91
  28.9811         79
  28.9997         84
  29.0183         82
  29.0368         78
  29.0554         81
  29.0740         74
  29.0926         98
  29.1111         87
  29.1297         73
  29.1483         89
  29.1669         69
  29.1854         96
  29.2040         75
  29.2226         84
  29.2412         91
  29.2597         70
  29.2783         77
  29.2969         83
  29.3155         66
  29.3340         92
  29.3526         67
  29.3712         83
  29.3898         74
  29.4083         94
  29.4269         77
  29.4455         77
  29.4641         82
  29.4826         79
  29.5012         77
  29.5198         75
  29.5384         99
  29.5569         80
  29.5755         81
  29.5941         65
  29.6127         73
  29.6312         73
  29.6498         72
  29.6684         76
  29.6870         69
  29.7055         72
  29.7241         68
  29.7427         77
  29.7613         89
  29.7799         73
  29.7984         67
  29.8170         67
  29.8356         64
  29.8542         68
  29.8727         59
  29.8913         85
  29.9099         68
  29.9285         67
  29.9470         77
  29.9656         72
  29.9842         83
  30.0028         77
  30.0213         73
  30.0399         89
  30.0585         63
  30.0771         73
  30.0956         96
  30.1142         75
  30.1328         76
  30.1514         65
  30.1699         85
  30.1885         73
  30.2071         80
  30.2257         83
  30.2442         79
  30.2628         67
  30.2814         81
  30.3000         87
  30.3185         85
  30.3371         98
  30.3557         97
  30.3743        146
  30.3928        173
  30.4114        143
  30.4300        132
  30.4486        117
  30.4671        133
  30.4857        100
  30.5043         92
  30.5229         82
  30.5415         80
  30.5600         72
  30.5786         83
  30.5972         76
  30.6158         87
  30.6343         69
  30.6529         62
  30.6715         64
  30.6901         78
  30.7086         89
  30.7272         75
  30.7458         61
  30.7644         78
  30.7829         67
  30.8015         64
  30.8201         66
  30.8387         78
  30.8572         75
  30.8758         76
  30.8944         69
  30.9130         65
  30.9315         82
  30.9501         63
  30.9687         82
  30.9873         64
  31.0058         69
  31.0244         76
  31.0430         67
  31.0616         61
  31.0801         66
  31.0987         67
  31.1173         68
  31.1359         63
  31.1544         64
  31.1730         66
  31.1916         69
  31.2102         73
  31.2287         74
  31.2473         60
  31.2659         57
  31.2845         59
  31.3030         67
  31.3216         63
  31.3402         66
  31.3588         71
  31.3774         69
  31.3959         80
  31.4145         60
  31.4331         79
  31.4517         67
  31.4702         75
  31.4888         70
  31.5074         91
  31.5260         63
  31.5445         62
  31.5631         69
  31.5817         80
  31.6003         69
  31.6188         59
  31.6374         72
  31.6560         66
  31.6746         59
  31.6931         63
  31.7117         62
  31.7303         58
  31.7489         60
  31.7674         65
  31.7860         70
  31.8046         64
  31.8232         66
  31.8417         75
  31.8603         79
  31.8789         57
  31.8975         73
  31.9160         68
  31.9346         64
  31.9532         74
  31.9718         57
  31.9903         63
  32.0089         59
  32.0275         57
  32.0461         53
  32.0646         62
  32.0832         51
  32.1018         74
  32.1204         56
  32.1390         68
  32.1575         65
  32.1761         71
  32.1947         62
  32.2133         56
  32.2318         63
  32.2504         73
  32.2690         56
  32.2876         67
  32.3061         59
  32.3247         64
  32.3433         75
  32.3619         61
  32.3804         63
  32.3990         82
  32.4176         71
  32.4362         68
  32.4547         80
  32.4733         83
  32.4919         72
  32.5105         73
  32.5290         84
  32.5476         73
  32.5662         73
  32.5848         70
  32.6033         69
  32.6219         65
  32.6405         55
  32.6591         70
  32.6776         56
  32.6962         67
  32.7148         58
  32.7334         67
  32.7519         77
  32.7705         60
  32.7891         57
  32.8077         69
  32.8262         80
  32.8448         67
  32.8634         57
  32.8820         59
  32.9006         59
  32.9191         60
  32.9377         49
  32.9563         61
  32.9749         61
  32.9934         70
  33.0120         49
  33.0306         62
  33.0492         58
  33.0677         57
  33.0863         47
  33.1049         55
  33.1235         59
  33.1420         62
  33.1606         69
  33.1792         67
  33.1978         67
  33.2163         54
  33.2349         62
  33.2535         64
  33.2721         61
  33.2906         68
  33.3092         52
  33.3278         46
  33.3464         76
  33.3649         64
  33.3835         59
  33.4021         51
  33.4207         58
  33.4392         59
  33.4578         64
  33.4764         56
  33.4950         61
  33.5135         72
  33.5321         63
  33.5507         62
  33.5693         60
  33.5878         58
  33.6064         44
  33.6250         56
  33.6436         56
  33.6622         48
  33.6807         42
  33.6993         45
  33.7179         63
  33.7365         54
  33.7550         61
  33.7736         57
  33.7922         55
  33.8108         65
  33.8293         49
  33.8479         60
  33.8665         57
  33.8851         69
  33.9036         55
  33.9222         64
  33.9408         55
  33.9594         47
  33.9779         41
  33.9965         62
  34.0151         58
  34.0337         55
  34.0522         49
  34.0708         63
  34.0894         60
  34.1080         66
  34.1265         49
  34.1451         46
  34.1637         74
  34.1823         50
  34.2008         63
  34.2194         49
  34.2380         70
  34.2566         65
  34.2751         66
  34.2937         46
  34.3123         64
  34.3309         56
  34.3494         62
  34.3680         56
  34.3866         49
  34.4052         62
  34.4238         52
  34.4423         51
  34.4609         54
  34.4795         52
  34.4981         50
  34.5166         70
  34.5352         72
  34.5538         63
  34.5724         54
  34.5909         71
  34.6095         68
  34.6281         61
  34.6467         51
  34.6652         54
  34.6838         68
  34.7024         63
  34.7210         61
  34.7395         78
  34.7581         74
  34.7767         62
  34.7953         75
  34.8138         83
  34.8324         62
  34.8510         82
  34.8696         74
  34.8881         60
  34.9067         65
  34.9253         61
  34.9439         57
  34.9624         46
  34.9810         57
  34.9996         60
  35.0182         42
  35.0367         59
  35.0553         48
  35.0739         50
  35.0925         59
  35.1110         60
  35.1296         61
  35.1482         44
  35.1668         55
  35.1854         66
  35.2039         43
  35.2225         61
  35.2411         44
  35.2597         47
  35.2782         51
  35.2968         59
  35.3154         56
  35.3340         63
  35.3525         54
  35.3711         58
  35.3897         65
  35.4083         49
  35.4268         57
  35.4454         53
  35.4640         42
  35.4826         62
  35.5011         57
  35.5197         44
  35.5383         54
  35.5569         50
  35.5754         52
  35.5940         52
  35.6126         40
  35.6312         56
  35.6497         50
  35.6683         48
  35.6869         50
  35.7055         50
  35.7240         50
  35.7426         44
  35.7612         52
  35.7798         45
  35.7983         53
  35.8169         46
  35.8355         56
  35.8541         46
  35.8726         60
  35.8912         54
  35.9098         49
  35.9284         51
  35.9469         48
  35.9655         49
  35.9841         48
  36.0027         35
  36.0213         49
  36.0398         59
  36.0584         54
  36.0770         41
  36.0956         46
  36.1141         45
  36.1327         49
  36.1513         40
  36.1699         33
  36.1884         51
  36.2070         49
  36.2256         44
  36.2442         46
  36.2627         50
  36.2813         49
  36.2999         38
  36.3185         35
  36.3370         53
  36.3556         36
  36.3742         53
  36.3928         38
  36.4113         46
  36.4299         42
  36.4485         50
  36.4671         47
  36.4856         52
  36.5042         51
  36.5228         48
  36.5414         49
  36.5599         46
  36.5785         44
  36.5971         54
  36.6157         44
  36.6342         39
  36.6528         47
  36.6714         42
  36.6900         58
  36.7085         44
  36.7271         42
  36.7457         46
  36.7643         39
  36.7829         46
  36.8014         41
  36.8200         55
  36.8386         38
  36.8572         41
  36.8757         48
  36.8943         43
  36.9129         42
  36.9315         49
  36.9500         46
  36.9686         57
  36.9872         58
  37.0058         39
  37.0243         57
  37.0429         44
  37.0615         60
  37.0801         52
  37.0986         59
  37.1172         58
  37.1358         52
  37.1544         44
  37.1729         39
  37.1915         37
  37.2101         41
  37.2287         46
  37.2472         37
  37.2658         48
  37.2844         40
  37.3030         48
  37.3215         46
  37.3401         54
  37.3587         37
  37.3773         48
  37.3958         38
  37.4144         50
  37.4330         71
  37.4516         75
  37.4701         56
  37.4887         60
  37.5073         45
  37.5259         57
  37.5445         60
  37.5630         55
  37.5816         37
  37.6002         51
  37.6188         51
  37.6373         48
  37.6559         44
  37.6745         47
  37.6931         49
  37.7116         50
  37.7302         38
  37.7488         49
  37.7674         50
  37.7859         48
  37.8045         54
  37.8231         35
  37.8417         42
  37.8602         39
  37.8788         43
  37.8974         43
  37.9160         38
  37.9345         41
  37.9531         53
  37.9717         36
  37.9903         42
  38.0088         47
  38.0274         43
  38.0460         40
  38.0646         41
  38.0831         30
  38.1017         44
  38.1203         38
  38.1389         38
  38.1574         45
  38.1760         46
  38.1946         49
  38.2132         42
  38.2317         39
  38.2503         47
  38.2689         44
  38.2875         53
  38.3061         40
  38.3246         38
  38.3432         32
  38.3618         38
  38.3804         28
  38.3989         37
  38.4175         31
  38.4361         36
  38.4547         53
  38.4732         35
  38.4918         38
  38.5104         50
  38.5290         35
  38.5475         32
  38.5661         30
  38.5847         41
  38.6033         43
  38.6218         30
  38.6404         43
  38.6590         41
  38.6776         41
  38.6961         34
  38.7147         59
  38.7333         33
  38.7519         39
  38.7704         41
  38.7890         47
  38.8076         44
  38.8262         45
  38.8447         46
  38.8633         35
  38.8819         34
  38.9005         39
  38.9190         55
  38.9376         39
  38.9562         36
  38.9748         53
  38.9933         30
  39.0119         39
  39.0305         35
  39.0491         42
  39.0677         35
  39.0862         39
  39.1048         47
  39.1234         42
  39.1420         33
  39.1605         29
  39.1791         41
  39.1977         25
  39.2163         39
  39.2348         34
  39.2534         40
  39.2720         45
  39.2906         35
  39.3091         49
  39.3277         34
  39.3463         45
  39.3649         32
  39.3834         35
  39.4020         42
  39.4206         39
  39.4392         41
  39.4577         61
  39.4763         27
  39.4949         33
  39.5135         44
  39.5320         33
  39.5506         41
  39.5692         36
  39.5878         31
  39.6063         50
  39.6249         28
  39.6435         34
  39.6621         48
  39.6806         31
  39.6992         37
  39.7178         39
  39.7364         41
  39.7549         36
  39.7735         36
  39.7921         35
  39.8107         40
  39.8293         42
  39.8478         31
  39.8664         32
  39.8850         42
  39.9036         31
  39.9221         39
  39.9407         43
  39.9593         42
  39.9779         30
  39.9964         39
  40.0150         37
  40.0336         46
  40.0522         43
  40.0707         32
  40.0893         44
  40.1079         30
  40.1265         42
  40.1450         40
  40.1636         48
  40.1822         40
  40.2008         38
  40.2193         32
  40.2379         34
  40.2565         43
  40.2751         36
  40.2936         41
  40.3122         24
  40.3308         34
  40.3494         32
  40.3679         43
  40.3865         38
  40.4051         41
  40.4237         41
  40.4422         40
  40.4608         37
  40.4794         34
  40.4980         41
  40.5165         38
  40.5351         39
  40.5537         38
  40.5723         53
  40.5908         35
  40.6094         31
  40.6280         42
  40.6466         50
  40.6652         32
  40.6837         34
  40.7023         46
  40.7209         37
  40.7395         27
  40.7580         32
  40.7766         36
  40.7952         37
  40.8138         38
  40.8323         33
  40.8509         50
  40.8695         36
  40.8881         37
  40.9066         47
  40.9252         45
  40.9438         38
  40.9624         42
  40.9809         37
  40.9995         44
  41.0181         44
  41.0367         44
  41.0552         34
  41.0738         42
  41.0924         36
  41.1110         30
  41.1295         38
  41.1481         36
  41.1667         37
  41.1853         38
  41.2038         37
  41.2224         40
  41.2410         28
  41.2596         37
  41.2781         29
  41.2967         38
  41.3153         32
  41.3339         48
  41.3524         42
  41.3710         39
  41.3896         48
  41.4082         36
  41.4268         43
  41.4453         29
  41.4639         38
  41.4825         41
  41.5011         49
  41.5196         36
  41.5382         37
  41.5568         40
  41.5754         29
  41.5939         38
  41.6125         30
  41.6311         31
  41.6497         44
  41.6682         35
  41.6868         34
  41.7054         37
  41.7240         32
  41.7425         40
  41.7611         30
  41.7797         37
  41.7983         43
  41.8168         39
  41.8354         32
  41.8540         40
  41.8726         28
  41.8911         39
  41.9097         33
  41.9283         35
  41.9469         37
  41.9654         31
  41.9840         42
  42.0026         34
  42.0212         43
  42.0397         20
  42.0583         42
  42.0769         30
  42.0955         39
  42.1140         25
  42.1326         38
  42.1512         31
  42.1698         35
  42.1884         35
  42.2069         40
  42.2255         37
  42.2441         39
  42.2627         33
  42.2812         36
  42.2998         36
  42.3184         29
  42.3370         25
  42.3555         41
  42.3741         35
  42.3927         38
  42.4113         33
  42.4298         33
  42.4484         41
  42.4670         27
  42.4856         36
  42.5041         37
  42.5227         32
  42.5413         38
  42.5599         48
  42.5784         37
  42.5970         40
  42.6156         33
  42.6342         20
  42.6527         34
  42.6713         35
  42.6899         35
  42.7085         34
  42.7270         32
  42.7456         37
  42.7642         44
  42.7828         40
  42.8013         39
  42.8199         34
  42.8385         31
  42.8571         35
  42.8756         34
  42.8942         40
  42.9128         45
  42.9314         32
  42.9500         28
  42.9685         46
  42.9871         35
  43.0057         42
  43.0243         33
  43.0428         32
  43.0614         22
  43.0800         48
  43.0986         31
  43.1171         34
  43.1357         57
  43.1543         33
  43.1729         26
  43.1914         44
  43.2100         46
  43.2286         45
  43.2472         39
  43.2657         51
  43.2843         27
  43.3029         29
  43.3215         44
  43.3400         44
  43.3586         38
  43.3772         40
  43.3958         48
  43.4143         50
  43.4329         33
  43.4515         41
  43.4701         46
  43.4886         70
  43.5072         74
  43.5258         77
  43.5444         48
  43.5629         37
  43.5815         37
  43.6001         33
  43.6187         60
  43.6372         52
  43.6558         48
  43.6744         34
  43.6930         36
  43.7116         34
  43.7301         36
  43.7487         32
  43.7673         42
  43.7859         49
  43.8044         36
  43.8230         23
  43.8416         36
  43.8602         26
  43.8787         36
  43.8973         28
  43.9159         28
  43.9345         30
  43.9530         38
  43.9716         31
  43.9902         30
  44.0088         34
  44.0273         27
  44.0459         33
  44.0645         38
  44.0831         37
  44.1016         35
  44.1202         33
  44.1388         35
  44.1574         45
  44.1759         34
  44.1945         33
  44.2131         34
  44.2317         35
  44.2502         46
  44.2688         42
  44.2874         46
  44.3060         43
  44.3245         46
  44.3431         49
  44.3617         42
  44.3803         38
  44.3988         38
  44.4174         35
  44.4360         36
  44.4546         35
  44.4732         32
  44.4917         33
  44.5103         36
  44.5289         36
  44.5475         31
  44.5660         33
  44.5846         38
  44.6032         48
  44.6218         36
  44.6403         36
  44.6589         39
  44.6775         33
  44.6961         36
  44.7146         48
  44.7332         33
  44.7518         33
  44.7704         50
  44.7889         37
  44.8075         32
  44.8261         39
  44.8447         32
  44.8632         31
  44.8818         38
  44.9004         40
  44.9190         29
  44.9375         33
  44.9561         24
  44.9747         34
  44.9933         31
  45.0118         36
  45.0304         31
  45.0490         51
  45.0676         35
  45.0861         33
  45.1047         44
  45.1233         44
  45.1419         45
  45.1604         33
  45.1790         24
  45.1976         32
  45.2162         30
  45.2347         35
  45.2533         23
  45.2719         28
  45.2905         32
  45.3091         35
  45.3276         34
  45.3462         31
  45.3648         28
  45.3834         35
  45.4019         45
  45.4205         34
  45.4391         31
  45.4577         40
  45.4762         29
  45.4948         36
  45.5134         42
  45.5320         24
  45.5505         28
  45.5691         31
  45.5877         28
  45.6063         31
  45.6248         39
  45.6434         22
  45.6620         38
  45.6806         32
  45.6991         37
  45.7177         37
  45.7363         25
  45.7549         28
  45.7734         37
  45.7920         25
  45.8106         38
  45.8292         27
  45.8477         32
  45.8663         28
  45.8849         29
  45.9035         41
  45.9220         31
  45.9406         36
  45.9592         38
  45.9778         45
  45.9963         29
  46.0149         36
  46.0335         39
  46.0521         34
  46.0707         35
  46.0892         27
  46.1078         39
  46.1264         32
  46.1450         34
  46.1635         35
  46.1821         24
  46.2007         26
  46.2193         29
  46.2378         34
  46.2564         27
  46.2750         30
  46.2936         35
  46.3121         39
  46.3307         35
  46.3493         35
  46.3679         26
  46.3864         35
  46.4050         43
  46.4236         29
  46.4422         35
  46.4607         37
  46.4793         24
  46.4979         27
  46.5165         25
  46.5350         28
  46.5536         33
  46.5722         37
  46.5908         42
  46.6093         37
  46.6279         31
  46.6465         27
  46.6651         38
  46.6836         30
  46.7022         28
  46.7208         33
  46.7394         31
  46.7579         35
  46.7765         33
  46.7951         29
  46.8137         26
  46.8323         24
  46.8508         44
  46.8694         26
  46.8880         35
  46.9066         23
  46.9251         22
  46.9437         36
  46.9623         35
  46.9809         23
  46.9994         30
  47.0180         32
  47.0366         32
  47.0552         29
  47.0737         32
  47.0923         31
  47.1109         39
  47.1295         30
  47.1480         40
  47.1666         32
  47.1852         39
  47.2038         31
  47.2223         24
  47.2409         25
  47.2595         23
  47.2781         49
  47.2966         39
  47.3152         32
  47.3338         29
  47.3524         32
  47.3709         18
  47.3895         29
  47.4081         38
  47.4267         32
  47.4452         31
  47.4638         27
  47.4824         42
  47.5010         24
  47.5195         25
  47.5381         30
  47.5567         28
  47.5753         25
  47.5939         34
  47.6124         30
  47.6310         32
  47.6496         31
  47.6682         37
  47.6867         27
  47.7053         32
  47.7239         34
  47.7425         35
  47.7610         35
  47.7796         32
  47.7982         38
  47.8168         32
  47.8353         33
  47.8539         31
  47.8725         27
  47.8911         34
  47.9096         40
  47.9282         31
  47.9468         34
  47.9654         32
  47.9839         31
  48.0025         39
  48.0211         24
  48.0397         33
  48.0582         29
  48.0768         34
  48.0954         30
  48.1140         32
  48.1325         37
  48.1511         27
  48.1697         42
  48.1883         22
  48.2068         18
  48.2254         29
  48.2440         33
  48.2626         38
  48.2811         31
  48.2997         36
  48.3183         29
  48.3369         29
  48.3555         23
  48.3740         31
  48.3926         24
  48.4112         33
  48.4298         21
  48.4483         38
  48.4669         33
  48.4855         22
  48.5041         39
  48.5226         34
  48.5412         23
  48.5598         30
  48.5784         31
  48.5969         33
  48.6155         28
  48.6341         36
  48.6527         26
  48.6712         30
  48.6898         35
  48.7084         38
  48.7270         34
  48.7455         36
  48.7641         24
  48.7827         28
  48.8013         35
  48.8198         35
  48.8384         40
  48.8570         34
  48.8756         35
  48.8941         28
  48.9127         44
  48.9313         49
  48.9499         71
  48.9684         72
  48.9870         49
  49.0056         45
  49.0242         33
  49.0427         32
  49.0613         44
  49.0799         44
  49.0985         40
  49.1171         35
  49.1356         38
  49.1542         29
  49.1728         32
  49.1914         23
  49.2099         23
  49.2285         32
  49.2471         27
  49.2657         32
  49.2842         32
  49.3028         34
  49.3214         26
  49.3400         24
  49.3585         29
  49.3771         29
  49.3957         28
  49.4143         36
  49.4328         42
  49.4514         37
  49.4700         25
  49.4886         30
  49.5071         33
  49.5257         33
  49.5443         39
  49.5629         31
  49.5814         24
  49.6000         33
  49.6186         32
  49.6372         28
  49.6557         24
  49.6743         31
  49.6929         29
  49.7115         33
  49.7300         36
  49.7486         20
  49.7672         30
  49.7858         34
  49.8043         33
  49.8229         36
  49.8415         27
  49.8601         23
  49.8786         27
  49.8972         33
  49.9158         18
  49.9344         36
  49.9530         35
  49.9715         42
  49.9901         37
  50.0087         28
  50.0273         25
  50.0458         25
  50.0644         30
  50.0830         37
  50.1016         22
  50.1201         45
  50.1387         29
  50.1573         38
  50.1759         41
  50.1944         32
  50.2130         30
  50.2316         34
  50.2502         33
  50.2687         32
  50.2873         31
  50.3059         29
  50.3245         38
  50.3430         30
  50.3616         32
  50.3802         32
  50.3988         26
  50.4173         28
  50.4359         39
  50.4545         29
  50.4731         30
  50.4916         25
  50.5102         35
  50.5288         37
  50.5474         32
  50.5659         33
  50.5845         16
  50.6031         33
  50.6217         35
  50.6402         30
  50.6588         28
  50.6774         32
  50.6960         39
  50.7146         38
  50.7331         43
  50.7517         24
  50.7703         32
  50.7889         24
  50.8074         28
  50.8260         30
  50.8446         36
  50.8632         27
  50.8817         22
  50.9003         28
  50.9189         26
  50.9375         23
  50.9560         29
  50.9746         30
  50.9932         31
  51.0118         32
  51.0303         38
  51.0489         41
  51.0675         29
  51.0861         28
  51.1046         39
  51.1232         37
  51.1418         30
  51.1604         36
  51.1789         35
  51.1975         33
  51.2161         27
  51.2347         36
  51.2532         28
  51.2718         28
  51.2904         37
  51.3090         23
  51.3275         28
  51.3461         29
  51.3647         25
  51.3833         46
  51.4018         35
  51.4204         28
  51.4390         36
  51.4576         42
  51.4762         30
  51.4947         39
  51.5133         39
  51.5319         45
  51.5505         47
  51.5690         22
  51.5876         32
  51.6062         37
  51.6248         27
  51.6433         36
  51.6619         27
  51.6805         31
  51.6991         35
  51.7176         34
  51.7362         27
  51.7548         31
  51.7734         21
  51.7919         27
  51.8105         33
  51.8291         32
  51.8477         32
  51.8662         26
  51.8848         29
  51.9034         39
  51.9220         24
  51.9405         25
  51.9591         29
  51.9777         30
  51.9963         28
  52.0148         26
  52.0334         30
  52.0520         23
  52.0706         39
  52.0891         29
  52.1077         36
  52.1263         36
  52.1449         34
  52.1634         31
  52.1820         29
  52.2006         26
  52.2192         31
  52.2378         22
  52.2563         35
  52.2749         27
  52.2935         26
  52.3121         27
  52.3306         32
  52.3492         25
  52.3678         21
  52.3864         28
  52.4049         24
  52.4235         31
  52.4421         33
  52.4607         44
  52.4792         30
  52.4978         35
  52.5164         30
  52.5350         17
  52.5535         33
  52.5721         18
  52.5907         38
  52.6093         32
  52.6278         22
  52.6464         25
  52.6650         30
  52.6836         29
  52.7021         23
  52.7207         25
  52.7393         20
  52.7579         24
  52.7764         34
  52.7950         30
  52.8136         31
  52.8322         25
  52.8507         28
  52.8693         24
  52.8879         30
  52.9065         29
  52.9250         32
  52.9436         35
  52.9622         24
  52.9808         32
  52.9994         33
  53.0179         36
  53.0365         28
  53.0551         24
  53.0737         35
  53.0922         26
  53.1108         17
  53.1294         32
  53.1480         21
  53.1665         22
  53.1851         29
  53.2037         22
  53.2223         32
  53.2408         21
  53.2594         28
  53.2780         34
  53.2966         31
  53.3151         40
  53.3337         38
  53.3523         39
  53.3709         23
  53.3894         23
  53.4080         22
  53.4266         25
  53.4452         30
  53.4637         25
  53.4823         27
  53.5009         22
  53.5195         24
  53.5380         24
  53.5566         36
  53.5752         24
  53.5938         34
  53.6123         31
  53.6309         27
  53.6495         42
  53.6681         24
  53.6866         24
  53.7052         29
  53.7238         24
  53.7424         35
  53.7610         21
  53.7795         27
  53.7981         28
  53.8167         26
  53.8353         29
  53.8538         32
  53.8724         37
  53.8910         24
  53.9096         26
  53.9281         39
  53.9467         30
  53.9653         35
  53.9839         44
  54.0024         44
  54.0210         29
  54.0396         33
  54.0582         31
  54.0767         33
  54.0953         27
  54.1139         25
  54.1325         31
  54.1510         43
  54.1696         27
  54.1882         27
  54.2068         36
  54.2253         34
  54.2439         26
  54.2625         19
  54.2811         27
  54.2996         27
  54.3182         19
  54.3368         33
  54.3554         20
  54.3739         31
  54.3925         28
  54.4111         29
  54.4297         25
  54.4482         22
  54.4668         24
  54.4854         24
  54.5040         34
  54.5225         25
  54.5411         31
  54.5597         36
  54.5783         21
  54.5969         19
  54.6154         21
  54.6340         27
  54.6526         32
  54.6712         28
  54.6897         23
  54.7083         29
  54.7269         28
  54.7455         21
  54.7640         25
  54.7826         27
  54.8012         29
  54.8198         22
  54.8383         33
  54.8569         22
  54.8755         37
  54.8941         37
  54.9126         23
  54.9312         35
  54.9498         24
  54.9684         22
  54.9869         33
  55.0055         33
  55.0241         21
  55.0427         24
  55.0612         22
  55.0798         29
  55.0984         22
  55.1170         22
  55.1355         27
  55.1541         31
  55.1727         26
  55.1913         25
  55.2098         25
  55.2284         21
  55.2470         39
  55.2656         32
  55.2841         31
  55.3027         23
  55.3213         13
  55.3399         33
  55.3585         33
  55.3770         28
  55.3956         26
  55.4142         20
  55.4328         39
  55.4513         34
  55.4699         28
  55.4885         22
  55.5071         31
  55.5256         24
  55.5442         16
  55.5628         31
  55.5814         29
  55.5999         21
  55.6185         22
  55.6371         18
  55.6557         25
  55.6742         36
  55.6928         18
  55.7114         20
  55.7300         24
  55.7485         31
  55.7671         29
  55.7857         20
  55.8043         23
  55.8228         38
  55.8414         15
  55.8600         31
  55.8786         37
  55.8971         33
  55.9157         28
  55.9343         25
  55.9529         28
  55.9714         28
  55.9900         25
  56.0086         33
  56.0272         22
  56.0457         22
  56.0643         23
  56.0829         20
  56.1015         31
  56.1201         35
  56.1386         36
  56.1572         39
  56.1758         36
  56.1944         43
  56.2129         38
  56.2315         34
  56.2501         36
  56.2687         35
  56.2872         30
  56.3058         27
  56.3244         23
  56.3430         38
  56.3615         25
  56.3801         25
  56.3987         24
  56.4173         23
  56.4358         21
  56.4544         31
  56.4730         25
  56.4916         20
  56.5101         22
  56.5287         22
  56.5473         22
  56.5659         28
  56.5844         33
  56.6030         24
  56.6216         31
  56.6402         30
  56.6587         30
  56.6773         34
  56.6959         28
  56.7145         27
  56.7330         21
  56.7516         26
  56.7702         25
  56.7888         31
  56.8073         27
  56.8259         27
  56.8445         32
  56.8631         24
  56.8817         25
  56.9002         22
  56.9188         30
  56.9374         20
  56.9560         26
  56.9745         28
  56.9931         28
  57.0117         28
  57.0303         17
  57.0488         27
  57.0674         33
  57.0860         19
  57.1046         25
  57.1231         25
  57.1417         34
  57.1603         27
  57.1789         34
  57.1974         32
  57.2160         16
  57.2346         24
  57.2532         16
  57.2717         23
  57.2903         31
  57.3089         27
  57.3275         34
  57.3460         23
  57.3646         16
  57.3832         32
  57.4018         35
  57.4203         24
  57.4389         33
  57.4575         19
  57.4761         29
  57.4946         27
  57.5132         24
  57.5318         29
  57.5504         24
  57.5689         31
  57.5875         25
  57.6061         27
  57.6247         28
  57.6433         26
  57.6618         34
  57.6804         28
  57.6990         30
  57.7176         21
  57.7361         36
  57.7547         30
  57.7733         26
  57.7919         31
  57.8104         28
  57.8290         21
  57.8476         28
  57.8662         23
  57.8847         28
  57.9033         26
  57.9219         44
  57.9405         28
  57.9590         27
  57.9776         28
  57.9962         38
  58.0148         29
  58.0333         24
  58.0519         42
  58.0705         38
  58.0891         27
  58.1076         37
  58.1262         22
  58.1448         28
  58.1634         23
  58.1819         30
  58.2005         38
  58.2191         28
  58.2377         25
  58.2562         23
  58.2748         33
  58.2934         19
  58.3120         31
  58.3305         29
  58.3491         30
  58.3677         26
  58.3863         31
  58.4049         35
  58.4234         37
  58.4420         34
  58.4606         23
  58.4792         27
  58.4977         38
  58.5163         23
  58.5349         29
  58.5535         25
  58.5720         29
  58.5906         36
  58.6092         27
  58.6278         18
  58.6463         30
  58.6649         28
  58.6835         19
  58.7021         29
  58.7206         28
  58.7392         31
  58.7578         25
  58.7764         25
  58.7949         22
  58.8135         30
  58.8321         26
  58.8507         34
  58.8692         33
  58.8878         26
  58.9064         25
  58.9250         22
  58.9435         24
  58.9621         30
  58.9807         30
  58.9993         23
  59.0178         26
  59.0364         23
  59.0550         30
  59.0736         30
  59.0921         21
  59.1107         26
  59.1293         26
  59.1479         21
  59.1664         28
  59.1850         20
  59.2036         20
  59.2222         18
  59.2408         29
  59.2593         27
  59.2779         23
  59.2965         29
  59.3151         39
  59.3336         19
  59.3522         25
  59.3708         29
  59.3894         20
  59.4079         17
  59.4265         26
  59.4451         33
  59.4637         36
  59.4822         31
  59.5008         21
  59.5194         32
  59.5380         33
  59.5565         30
  59.5751         29
  59.5937         32
  59.6123         34
  59.6308         31
  59.6494         23
  59.6680         34
  59.6866         34
  59.7051         30
  59.7237         20
  59.7423         23
  59.7609         24
  59.7794         25
  59.7980         22
  59.8166         37
  59.8352         27
  59.8537         35
  59.8723         40
  59.8909         38
  59.9095         24
  59.9280         14
  59.9466         28
  59.9652         20
  59.9838         31
  60.0024         22
