; (content of file Y:\Sam\Apurva-07-20-2022\puck2\ML_20220720_36_SJD_0_LaB6-1min.raw)
_FILEVERSION = 3
_SAMPLE = ML_20220720_36_SJD_0_LaB6-1mi
_+SAMPLE = 
_SITE = USA
_USER = Administrator
_GONIOMETER_CODE = 20
; Goniometer : D8 theta/2theta, stage : Unknown
_ATTACHMENTS_CODE = 0
_GONIOMETER_RADIUS = 200.5
_FIXED_DIVSLIT = 0.6
_FIXED_SAMPLESLIT = 0
_SOLLER_SLITS = 2
_FIXED_DETSLIT = 9.55
_MONOCHROMATOR = 0
; Incident beam monochromator : None
_SOLLER_SLITS_2 = N
_THIN_FILM = N
_BETA_FILTER = Y
_FIXED_ANTISLIT = 5.89
_ANALYZER_CODE = 0
; Received beam analyzer : None
_DATEMEASURED = "25-Jul-2022 18:53:38"
_WL_UNIT = A
_WL1 = 1.5406
_WL2 = 1.54439
_WL3 = 1.39222
_WLRATIO = 0.5
_ANODE = Cu
_V4_INF_CREATOR = XRDWizard
_V4_INF_CREATOR_VERSION = V2.9.0.22
_V4_INF_WIZARD_VERSION = V2.9.0.22
_V4_INF_WIZARD_ADDINS = V2.9.0.22
_V4_INF_WIZARD_DOCTYPE = XRD
_V4_INF_OSUSER = McQueenLab
_V4_INF_USER = Administrator
_V4_INF_SITE = USA
_V4_INF_SAMPLEID = ML_20220720_36_SJD_0_LaB6-1mi

; Data for range 1
_DRIVE = COUPLED
_STEPTIME = 4.23
_STEPSIZE = 0.0185756
_STEPMODE = C
_START = 5
_THETA = 2.5
_2THETA = 5
_KHI = 0
_PHI = 0
_X = 0
_Y = 0
_Z = 0
_DETECTOR = 5
; Detector type : Unknown
_DETECTORSLIT = unkn
_AUX1 = 0
_AUX2 = 0
_AUX3 = 0
_TIMESTARTED = 15
_TEMP_RATE = -1
_TEMP_DELAY = -1
_KV = 40
_MA = 40
_RANGE_WL = 1.5406
_3DPLANE = 0
_V4_ADDITIONALDETECTOR = 257
_V4_PSD2THETA = 3.4354
_V4_PSDCHANNEL1 = 0
_V4_PSDAPERTURE = 12.68
_V4_PSDTYPE = 5
_V4_PSDFIXED = 0
_V4_COUNTERS_MASK = 4096
_V4_DRIVES_MASK = 0
_V4_ENCODERS_MASK = 0
_2THETACOUNTS = 1
; 2THETA  PSD
   5.0000        106
   5.0186         78
   5.0372         97
   5.0557         93
   5.0743         88
   5.0929         96
   5.1115         94
   5.1300        113
   5.1486         97
   5.1672         98
   5.1858         86
   5.2043        105
   5.2229         87
   5.2415         98
   5.2601         85
   5.2786         96
   5.2972         95
   5.3158         94
   5.3344         78
   5.3529        104
   5.3715         98
   5.3901         87
   5.4087         82
   5.4272         97
   5.4458         88
   5.4644         68
   5.4830         87
   5.5015         73
   5.5201         68
   5.5387         70
   5.5573         83
   5.5758         73
   5.5944         89
   5.6130         83
   5.6316         71
   5.6501         78
   5.6687         81
   5.6873         77
   5.7059         68
   5.7244         83
   5.7430         89
   5.7616         89
   5.7802         91
   5.7988         64
   5.8173         85
   5.8359         69
   5.8545         58
   5.8731         67
   5.8916         77
   5.9102         80
   5.9288         84
   5.9474         77
   5.9659         90
   5.9845         71
   6.0031         81
   6.0217         73
   6.0402         74
   6.0588         78
   6.0774         90
   6.0960         74
   6.1145         67
   6.1331         68
   6.1517         56
   6.1703         62
   6.1888         71
   6.2074         69
   6.2260         68
   6.2446         68
   6.2631         67
   6.2817         69
   6.3003         76
   6.3189         55
   6.3374         73
   6.3560         74
   6.3746         71
   6.3932         73
   6.4117         67
   6.4303         55
   6.4489         44
   6.4675         74
   6.4860         58
   6.5046         63
   6.5232         49
   6.5418         68
   6.5604         66
   6.5789         72
   6.5975         56
   6.6161         56
   6.6347         52
   6.6532         64
   6.6718         73
   6.6904         54
   6.7090         55
   6.7275         65
   6.7461         65
   6.7647         60
   6.7833         65
   6.8018         70
   6.8204         65
   6.8390         52
   6.8576         66
   6.8761         59
   6.8947         51
   6.9133         62
   6.9319         53
   6.9504         59
   6.9690         59
   6.9876         57
   7.0062         57
   7.0247         53
   7.0433         67
   7.0619         67
   7.0805         60
   7.0990         76
   7.1176         57
   7.1362         62
   7.1548         65
   7.1733         61
   7.1919         61
   7.2105         65
   7.2291         66
   7.2476         52
   7.2662         49
   7.2848         66
   7.3034         54
   7.3220         39
   7.3405         50
   7.3591         46
   7.3777         69
   7.3963         62
   7.4148         57
   7.4334         58
   7.4520         64
   7.4706         60
   7.4891         57
   7.5077         44
   7.5263         52
   7.5449         47
   7.5634         71
   7.5820         74
   7.6006         54
   7.6192         67
   7.6377         75
   7.6563         62
   7.6749         63
   7.6935         72
   7.7120         81
   7.7306         67
   7.7492         63
   7.7678         69
   7.7863         60
   7.8049         59
   7.8235         67
   7.8421         59
   7.8606         68
   7.8792         74
   7.8978         64
   7.9164         60
   7.9349         79
   7.9535         68
   7.9721         67
   7.9907         78
   8.0092         53
   8.0278         68
   8.0464         81
   8.0650         74
   8.0835         72
   8.1021         74
   8.1207         64
   8.1393         71
   8.1579         79
   8.1764         69
   8.1950         69
   8.2136         55
   8.2322         72
   8.2507         53
   8.2693         66
   8.2879         82
   8.3065         68
   8.3250         66
   8.3436         70
   8.3622         65
   8.3808         63
   8.3993         60
   8.4179         65
   8.4365         68
   8.4551         75
   8.4736         66
   8.4922         69
   8.5108         64
   8.5294         73
   8.5479         71
   8.5665         72
   8.5851         76
   8.6037         77
   8.6222         87
   8.6408         76
   8.6594         76
   8.6780         71
   8.6965         90
   8.7151         80
   8.7337         73
   8.7523         75
   8.7708         73
   8.7894         79
   8.8080         80
   8.8266         74
   8.8451         69
   8.8637         75
   8.8823         89
   8.9009         72
   8.9195         60
   8.9380         69
   8.9566         68
   8.9752         77
   8.9938         89
   9.0123         80
   9.0309         87
   9.0495         72
   9.0681         78
   9.0866         76
   9.1052         61
   9.1238         78
   9.1424         82
   9.1609         80
   9.1795         75
   9.1981         69
   9.2167         70
   9.2352         61
   9.2538         84
   9.2724         90
   9.2910         71
   9.3095         88
   9.3281         81
   9.3467         72
   9.3653         67
   9.3838         78
   9.4024         87
   9.4210         81
   9.4396         79
   9.4581         79
   9.4767         73
   9.4953         75
   9.5139         78
   9.5324         78
   9.5510         93
   9.5696        103
   9.5882         80
   9.6067         74
   9.6253         80
   9.6439         87
   9.6625         90
   9.6811         82
   9.6996         69
   9.7182         95
   9.7368         94
   9.7554         82
   9.7739         83
   9.7925         75
   9.8111         87
   9.8297         84
   9.8482         90
   9.8668         85
   9.8854        109
   9.9040        100
   9.9225         89
   9.9411         93
   9.9597         88
   9.9783         98
   9.9968         90
  10.0154         79
  10.0340         92
  10.0526         88
  10.0711         97
  10.0897         86
  10.1083        115
  10.1269         89
  10.1454        108
  10.1640         95
  10.1826         71
  10.2012         93
  10.2197         82
  10.2383        104
  10.2569         80
  10.2755         87
  10.2940         76
  10.3126         86
  10.3312         85
  10.3498         87
  10.3683         83
  10.3869         82
  10.4055        103
  10.4241         75
  10.4427         85
  10.4612        100
  10.4798         74
  10.4984         87
  10.5170         85
  10.5355         87
  10.5541         90
  10.5727         91
  10.5913         94
  10.6098         83
  10.6284         98
  10.6470         96
  10.6656         94
  10.6841         87
  10.7027         87
  10.7213         97
  10.7399         68
  10.7584         88
  10.7770         90
  10.7956         76
  10.8142         94
  10.8327        101
  10.8513         94
  10.8699         80
  10.8885         90
  10.9070         90
  10.9256         99
  10.9442         74
  10.9628         89
  10.9813         89
  10.9999         82
  11.0185         95
  11.0371         95
  11.0556         87
  11.0742        102
  11.0928         96
  11.1114         99
  11.1299         95
  11.1485         81
  11.1671         89
  11.1857         96
  11.2043         89
  11.2228         74
  11.2414         72
  11.2600         92
  11.2786         86
  11.2971        104
  11.3157         91
  11.3343         89
  11.3529         96
  11.3714         81
  11.3900         87
  11.4086         95
  11.4272         74
  11.4457         90
  11.4643         86
  11.4829         66
  11.5015         91
  11.5200         94
  11.5386         90
  11.5572         83
  11.5758         92
  11.5943         81
  11.6129         90
  11.6315         92
  11.6501         82
  11.6686        103
  11.6872         79
  11.7058         80
  11.7244         91
  11.7429         89
  11.7615         77
  11.7801         74
  11.7987         87
  11.8172         81
  11.8358         68
  11.8544         78
  11.8730         86
  11.8915         82
  11.9101        100
  11.9287         97
  11.9473         90
  11.9659         85
  11.9844        102
  12.0030         94
  12.0216         78
  12.0402        100
  12.0587         85
  12.0773         92
  12.0959         90
  12.1145         82
  12.1330         78
  12.1516         93
  12.1702         75
  12.1888         95
  12.2073         90
  12.2259         84
  12.2445         69
  12.2631         70
  12.2816         85
  12.3002         78
  12.3188         65
  12.3374         79
  12.3559         89
  12.3745         80
  12.3931         69
  12.4117         73
  12.4302         87
  12.4488         73
  12.4674         69
  12.4860         80
  12.5045         90
  12.5231         75
  12.5417         76
  12.5603         89
  12.5788         79
  12.5974         69
  12.6160         69
  12.6346         76
  12.6531         74
  12.6717         72
  12.6903         64
  12.7089         78
  12.7274         80
  12.7460         86
  12.7646         66
  12.7832         69
  12.8018         69
  12.8203         73
  12.8389         81
  12.8575         78
  12.8761         80
  12.8946         80
  12.9132         66
  12.9318         87
  12.9504         80
  12.9689         88
  12.9875         77
  13.0061         74
  13.0247         75
  13.0432         75
  13.0618         76
  13.0804         63
  13.0990         86
  13.1175         85
  13.1361         60
  13.1547         72
  13.1733         66
  13.1918         77
  13.2104         79
  13.2290         83
  13.2476         91
  13.2661         90
  13.2847         77
  13.3033         93
  13.3219         63
  13.3404         80
  13.3590         78
  13.3776         75
  13.3962         68
  13.4147         93
  13.4333         67
  13.4519         73
  13.4705         75
  13.4890         77
  13.5076         70
  13.5262         76
  13.5448         55
  13.5634         68
  13.5819         67
  13.6005         65
  13.6191         54
  13.6377         76
  13.6562         81
  13.6748         69
  13.6934         63
  13.7120         75
  13.7305         70
  13.7491         70
  13.7677         71
  13.7863         76
  13.8048         69
  13.8234         68
  13.8420         56
  13.8606         62
  13.8791         51
  13.8977         70
  13.9163         70
  13.9349         63
  13.9534         75
  13.9720         58
  13.9906         70
  14.0092         66
  14.0277         81
  14.0463         67
  14.0649         74
  14.0835         84
  14.1020         76
  14.1206         51
  14.1392         54
  14.1578         69
  14.1763         62
  14.1949         63
  14.2135         83
  14.2321         63
  14.2506         61
  14.2692         62
  14.2878         78
  14.3064         61
  14.3250         66
  14.3435         63
  14.3621         61
  14.3807         61
  14.3993         67
  14.4178         68
  14.4364         59
  14.4550         69
  14.4736         59
  14.4921         77
  14.5107         69
  14.5293         54
  14.5479         73
  14.5664         49
  14.5850         57
  14.6036         50
  14.6222         59
  14.6407         67
  14.6593         64
  14.6779         63
  14.6965         64
  14.7150         68
  14.7336         63
  14.7522         65
  14.7708         74
  14.7893         54
  14.8079         70
  14.8265         70
  14.8451         61
  14.8636         64
  14.8822         61
  14.9008         55
  14.9194         63
  14.9379         63
  14.9565         64
  14.9751         53
  14.9937         66
  15.0122         53
  15.0308         64
  15.0494         59
  15.0680         63
  15.0866         60
  15.1051         54
  15.1237         57
  15.1423         64
  15.1609         63
  15.1794         59
  15.1980         68
  15.2166         69
  15.2352         61
  15.2537         84
  15.2723         64
  15.2909         64
  15.3095         63
  15.3280         53
  15.3466         65
  15.3652         62
  15.3838         59
  15.4023         67
  15.4209         67
  15.4395         58
  15.4581         65
  15.4766         49
  15.4952         68
  15.5138         73
  15.5324         62
  15.5509         59
  15.5695         73
  15.5881         52
  15.6067         70
  15.6252         61
  15.6438         66
  15.6624         77
  15.6810         61
  15.6995         55
  15.7181         67
  15.7367         63
  15.7553         59
  15.7738         79
  15.7924         59
  15.8110         60
  15.8296         72
  15.8482         59
  15.8667         62
  15.8853         47
  15.9039         52
  15.9225         58
  15.9410         57
  15.9596         59
  15.9782         48
  15.9968         57
  16.0153         49
  16.0339         70
  16.0525         61
  16.0711         65
  16.0896         67
  16.1082         56
  16.1268         48
  16.1454         45
  16.1639         47
  16.1825         55
  16.2011         56
  16.2197         67
  16.2382         56
  16.2568         43
  16.2754         67
  16.2940         53
  16.3125         57
  16.3311         48
  16.3497         58
  16.3683         64
  16.3868         51
  16.4054         59
  16.4240         57
  16.4426         62
  16.4611         56
  16.4797         51
  16.4983         66
  16.5169         64
  16.5354         63
  16.5540         62
  16.5726         58
  16.5912         68
  16.6097         64
  16.6283         65
  16.6469         57
  16.6655         50
  16.6841         59
  16.7026         62
  16.7212         54
  16.7398         69
  16.7584         52
  16.7769         60
  16.7955         57
  16.8141         63
  16.8327         61
  16.8512         63
  16.8698         55
  16.8884         62
  16.9070         50
  16.9255         59
  16.9441         51
  16.9627         61
  16.9813         53
  16.9998         56
  17.0184         51
  17.0370         59
  17.0556         64
  17.0741         69
  17.0927         65
  17.1113         57
  17.1299         46
  17.1484         60
  17.1670         47
  17.1856         51
  17.2042         72
  17.2227         61
  17.2413         53
  17.2599         57
  17.2785         61
  17.2970         58
  17.3156         62
  17.3342         53
  17.3528         51
  17.3713         58
  17.3899         72
  17.4085         68
  17.4271         68
  17.4457         46
  17.4642         58
  17.4828         55
  17.5014         71
  17.5200         66
  17.5385         69
  17.5571         53
  17.5757         59
  17.5943         57
  17.6128         58
  17.6314         63
  17.6500         50
  17.6686         55
  17.6871         63
  17.7057         70
  17.7243         59
  17.7429         60
  17.7614         63
  17.7800         54
  17.7986         60
  17.8172         55
  17.8357         59
  17.8543         57
  17.8729         56
  17.8915         53
  17.9100         49
  17.9286         53
  17.9472         58
  17.9658         51
  17.9843         59
  18.0029         56
  18.0215         47
  18.0401         62
  18.0586         51
  18.0772         68
  18.0958         81
  18.1144         60
  18.1329         75
  18.1515         56
  18.1701         72
  18.1887         52
  18.2073         58
  18.2258         69
  18.2444         66
  18.2630         71
  18.2816         78
  18.3001         86
  18.3187         61
  18.3373         59
  18.3559         68
  18.3744         66
  18.3930         59
  18.4116         80
  18.4302         63
  18.4487         70
  18.4673         59
  18.4859         59
  18.5045         62
  18.5230         66
  18.5416         59
  18.5602         65
  18.5788         63
  18.5973         68
  18.6159         64
  18.6345         77
  18.6531         46
  18.6716         52
  18.6902         54
  18.7088         53
  18.7274         61
  18.7459         62
  18.7645         69
  18.7831         47
  18.8017         54
  18.8202         71
  18.8388         79
  18.8574         58
  18.8760         66
  18.8945         72
  18.9131         56
  18.9317         63
  18.9503         73
  18.9689         75
  18.9874         63
  19.0060         71
  19.0246         74
  19.0432         55
  19.0617         66
  19.0803         49
  19.0989         72
  19.1175         59
  19.1360         66
  19.1546         60
  19.1732         65
  19.1918         65
  19.2103         65
  19.2289         64
  19.2475         65
  19.2661         63
  19.2846         65
  19.3032         61
  19.3218         65
  19.3404         63
  19.3589         53
  19.3775         62
  19.3961         66
  19.4147         73
  19.4332         70
  19.4518         74
  19.4704         61
  19.4890         65
  19.5075         58
  19.5261         68
  19.5447         64
  19.5633         65
  19.5818         52
  19.6004         64
  19.6190         57
  19.6376         68
  19.6561         67
  19.6747         67
  19.6933         72
  19.7119         61
  19.7305         72
  19.7490         66
  19.7676         58
  19.7862         59
  19.8048         61
  19.8233         70
  19.8419         63
  19.8605         70
  19.8791         54
  19.8976         66
  19.9162         64
  19.9348         63
  19.9534         53
  19.9719         65
  19.9905         55
  20.0091         76
  20.0277         65
  20.0462         63
  20.0648         61
  20.0834         52
  20.1020         73
  20.1205         65
  20.1391         54
  20.1577         65
  20.1763         61
  20.1948         65
  20.2134         69
  20.2320         64
  20.2506         71
  20.2691         70
  20.2877         68
  20.3063         64
  20.3249         45
  20.3434         53
  20.3620         66
  20.3806         59
  20.3992         80
  20.4177         59
  20.4363         77
  20.4549         55
  20.4735         72
  20.4921         60
  20.5106         70
  20.5292         73
  20.5478         75
  20.5664         71
  20.5849         54
  20.6035         72
  20.6221         69
  20.6407         68
  20.6592         74
  20.6778         76
  20.6964         71
  20.7150         69
  20.7335         78
  20.7521         76
  20.7707         60
  20.7893         77
  20.8078         74
  20.8264         61
  20.8450         68
  20.8636         73
  20.8821         62
  20.9007         75
  20.9193         79
  20.9379         69
  20.9564         84
  20.9750         72
  20.9936         65
  21.0122         78
  21.0307         65
  21.0493         82
  21.0679         68
  21.0865         63
  21.1050         70
  21.1236         80
  21.1422         75
  21.1608         82
  21.1793         88
  21.1979         95
  21.2165        146
  21.2351        116
  21.2537        116
  21.2722        101
  21.2908        118
  21.3094        123
  21.3280        131
  21.3465        163
  21.3651        198
  21.3837        188
  21.4023        138
  21.4208        122
  21.4394        110
  21.4580         84
  21.4766         79
  21.4951         81
  21.5137         64
  21.5323         80
  21.5509         90
  21.5694         73
  21.5880         66
  21.6066         72
  21.6252         71
  21.6437         78
  21.6623         67
  21.6809         80
  21.6995         57
  21.7180         86
  21.7366         84
  21.7552         67
  21.7738         61
  21.7923         75
  21.8109         79
  21.8295         54
  21.8481         60
  21.8666         71
  21.8852         72
  21.9038         83
  21.9224         58
  21.9409         69
  21.9595         58
  21.9781         76
  21.9967         83
  22.0152         76
  22.0338         74
  22.0524         71
  22.0710         78
  22.0896         79
  22.1081         80
  22.1267         74
  22.1453         80
  22.1639         66
  22.1824         85
  22.2010         77
  22.2196         66
  22.2382         75
  22.2567         75
  22.2753         74
  22.2939         78
  22.3125         78
  22.3310         75
  22.3496         67
  22.3682         69
  22.3868         95
  22.4053         72
  22.4239         71
  22.4425         73
  22.4611         73
  22.4796         79
  22.4982         86
  22.5168         64
  22.5354         80
  22.5539         71
  22.5725         76
  22.5911         93
  22.6097         70
  22.6282         71
  22.6468         87
  22.6654         69
  22.6840         57
  22.7025         59
  22.7211         79
  22.7397         69
  22.7583         76
  22.7768         80
  22.7954         79
  22.8140         70
  22.8326         65
  22.8512         80
  22.8697         72
  22.8883         70
  22.9069         89
  22.9255         73
  22.9440         66
  22.9626         66
  22.9812         74
  22.9998         62
  23.0183         79
  23.0369         63
  23.0555         70
  23.0741         75
  23.0926         56
  23.1112         78
  23.1298         79
  23.1484         85
  23.1669         68
  23.1855         69
  23.2041         77
  23.2227         62
  23.2412         81
  23.2598         80
  23.2784         79
  23.2970         71
  23.3155         75
  23.3341         79
  23.3527         80
  23.3713         72
  23.3898         78
  23.4084         63
  23.4270         81
  23.4456         71
  23.4641         63
  23.4827         78
  23.5013         60
  23.5199         83
  23.5384         88
  23.5570         74
  23.5756         72
  23.5942         70
  23.6128         93
  23.6313         74
  23.6499         70
  23.6685         78
  23.6871         54
  23.7056         72
  23.7242         83
  23.7428         56
  23.7614         86
  23.7799         62
  23.7985         76
  23.8171         81
  23.8357         67
  23.8542         74
  23.8728         71
  23.8914         69
  23.9100         74
  23.9285         73
  23.9471         78
  23.9657         67
  23.9843         73
  24.0028         56
  24.0214         66
  24.0400         74
  24.0586         79
  24.0771         80
  24.0957         61
  24.1143         84
  24.1329         87
  24.1514         66
  24.1700         64
  24.1886         71
  24.2072         90
  24.2257         79
  24.2443         97
  24.2629         62
  24.2815         92
  24.3000         91
  24.3186         78
  24.3372         82
  24.3558         89
  24.3744         79
  24.3929         75
  24.4115         62
  24.4301         66
  24.4487         74
  24.4672         80
  24.4858         84
  24.5044         88
  24.5230         66
  24.5415         52
  24.5601         73
  24.5787         66
  24.5973         65
  24.6158         71
  24.6344         86
  24.6530         78
  24.6716         92
  24.6901         83
  24.7087         77
  24.7273         68
  24.7459         78
  24.7644         77
  24.7830         74
  24.8016         92
  24.8202         71
  24.8387         73
  24.8573         70
  24.8759         77
  24.8945         64
  24.9130         56
  24.9316         66
  24.9502         90
  24.9688         71
  24.9873         71
  25.0059         72
  25.0245         72
  25.0431         73
  25.0616         83
  25.0802         55
  25.0988         84
  25.1174         67
  25.1360         69
  25.1545         79
  25.1731         63
  25.1917         75
  25.2103         73
  25.2288         80
  25.2474         72
  25.2660         64
  25.2846         58
  25.3031         86
  25.3217         71
  25.3403         67
  25.3589         70
  25.3774         93
  25.3960         85
  25.4146         74
  25.4332         63
  25.4517         60
  25.4703         68
  25.4889         60
  25.5075         72
  25.5260         73
  25.5446         68
  25.5632         68
  25.5818         69
  25.6003         54
  25.6189         70
  25.6375         71
  25.6561         71
  25.6746         74
  25.6932         74
  25.7118         85
  25.7304         61
  25.7489         79
  25.7675         66
  25.7861         78
  25.8047         68
  25.8232         58
  25.8418         60
  25.8604         73
  25.8790         64
  25.8976         89
  25.9161         94
  25.9347         67
  25.9533         57
  25.9719         77
  25.9904         73
  26.0090         73
  26.0276         75
  26.0462         61
  26.0647         83
  26.0833         80
  26.1019         68
  26.1205         69
  26.1390         71
  26.1576         47
  26.1762         78
  26.1948         73
  26.2133         73
  26.2319         70
  26.2505         75
  26.2691         66
  26.2876         70
  26.3062         58
  26.3248         69
  26.3434         74
  26.3619         65
  26.3805         74
  26.3991         61
  26.4177         61
  26.4362         65
  26.4548         71
  26.4734         84
  26.4920         62
  26.5105         80
  26.5291         78
  26.5477         66
  26.5663         61
  26.5848         77
  26.6034         59
  26.6220         68
  26.6406         69
  26.6591         61
  26.6777         70
  26.6963         61
  26.7149         83
  26.7335         72
  26.7520         65
  26.7706         79
  26.7892         72
  26.8078         70
  26.8263         77
  26.8449         60
  26.8635         84
  26.8821         75
  26.9006         62
  26.9192         60
  26.9378         66
  26.9564         58
  26.9749         72
  26.9935         58
  27.0121         73
  27.0307         72
  27.0492         74
  27.0678         76
  27.0864         68
  27.1050         68
  27.1235         60
  27.1421         69
  27.1607         70
  27.1793        105
  27.1978         71
  27.2164         96
  27.2350         77
  27.2536         99
  27.2721         87
  27.2907         75
  27.3093         73
  27.3279         75
  27.3464         85
  27.3650         79
  27.3836         67
  27.4022         70
  27.4207         65
  27.4393         67
  27.4579         59
  27.4765         79
  27.4951         61
  27.5136         69
  27.5322         78
  27.5508         66
  27.5694         56
  27.5879         63
  27.6065         75
  27.6251         70
  27.6437         63
  27.6622         80
  27.6808         71
  27.6994         72
  27.7180         64
  27.7365         55
  27.7551         71
  27.7737         78
  27.7923         54
  27.8108         62
  27.8294         58
  27.8480         78
  27.8666         76
  27.8851         61
  27.9037         76
  27.9223         60
  27.9409         77
  27.9594         76
  27.9780         67
  27.9966         49
  28.0152         63
  28.0337         72
  28.0523         52
  28.0709         65
  28.0895         70
  28.1080         66
  28.1266         65
  28.1452         80
  28.1638         57
  28.1823         57
  28.2009         53
  28.2195         55
  28.2381         58
  28.2567         70
  28.2752         69
  28.2938         60
  28.3124         63
  28.3310         58
  28.3495         58
  28.3681         45
  28.3867         76
  28.4053         60
  28.4238         67
  28.4424         59
  28.4610         61
  28.4796         41
  28.4981         59
  28.5167         51
  28.5353         55
  28.5539         64
  28.5724         68
  28.5910         58
  28.6096         59
  28.6282         78
  28.6467         66
  28.6653         61
  28.6839         61
  28.7025         59
  28.7210         59
  28.7396         51
  28.7582         52
  28.7768         54
  28.7953         48
  28.8139         47
  28.8325         56
  28.8511         68
  28.8696         60
  28.8882         60
  28.9068         61
  28.9254         50
  28.9439         65
  28.9625         62
  28.9811         62
  28.9997         61
  29.0183         53
  29.0368         54
  29.0554         71
  29.0740         76
  29.0926         64
  29.1111         62
  29.1297         56
  29.1483         61
  29.1669         56
  29.1854         53
  29.2040         49
  29.2226         68
  29.2412         67
  29.2597         55
  29.2783         60
  29.2969         53
  29.3155         54
  29.3340         46
  29.3526         56
  29.3712         56
  29.3898         51
  29.4083         62
  29.4269         55
  29.4455         58
  29.4641         62
  29.4826         72
  29.5012         54
  29.5198         55
  29.5384         65
  29.5569         53
  29.5755         55
  29.5941         68
  29.6127         70
  29.6312         47
  29.6498         55
  29.6684         52
  29.6870         52
  29.7055         56
  29.7241         64
  29.7427         60
  29.7613         56
  29.7799         64
  29.7984         59
  29.8170         52
  29.8356         62
  29.8542         67
  29.8727         58
  29.8913         48
  29.9099         64
  29.9285         56
  29.9470         51
  29.9656         56
  29.9842         59
  30.0028         62
  30.0213         50
  30.0399         58
  30.0585         57
  30.0771         73
  30.0956         51
  30.1142         70
  30.1328         63
  30.1514         53
  30.1699         70
  30.1885         55
  30.2071         54
  30.2257         53
  30.2442         68
  30.2628         58
  30.2814         60
  30.3000         64
  30.3185         80
  30.3371         72
  30.3557         93
  30.3743        115
  30.3928        105
  30.4114         93
  30.4300         90
  30.4486         82
  30.4671         83
  30.4857         80
  30.5043         67
  30.5229         69
  30.5415         67
  30.5600         57
  30.5786         42
  30.5972         57
  30.6158         56
  30.6343         49
  30.6529         44
  30.6715         50
  30.6901         68
  30.7086         53
  30.7272         70
  30.7458         53
  30.7644         44
  30.7829         59
  30.8015         47
  30.8201         46
  30.8387         51
  30.8572         54
  30.8758         38
  30.8944         45
  30.9130         74
  30.9315         44
  30.9501         65
  30.9687         42
  30.9873         61
  31.0058         54
  31.0244         57
  31.0430         53
  31.0616         60
  31.0801         51
  31.0987         53
  31.1173         49
  31.1359         57
  31.1544         49
  31.1730         56
  31.1916         48
  31.2102         54
  31.2287         62
  31.2473         39
  31.2659         53
  31.2845         56
  31.3030         39
  31.3216         56
  31.3402         55
  31.3588         53
  31.3774         64
  31.3959         54
  31.4145         47
  31.4331         48
  31.4517         57
  31.4702         69
  31.4888         56
  31.5074         53
  31.5260         54
  31.5445         51
  31.5631         54
  31.5817         56
  31.6003         43
  31.6188         62
  31.6374         55
  31.6560         52
  31.6746         56
  31.6931         51
  31.7117         56
  31.7303         60
  31.7489         48
  31.7674         51
  31.7860         58
  31.8046         41
  31.8232         53
  31.8417         44
  31.8603         48
  31.8789         56
  31.8975         54
  31.9160         48
  31.9346         46
  31.9532         45
  31.9718         53
  31.9903         63
  32.0089         42
  32.0275         39
  32.0461         50
  32.0646         50
  32.0832         51
  32.1018         53
  32.1204         42
  32.1390         53
  32.1575         47
  32.1761         32
  32.1947         45
  32.2133         52
  32.2318         54
  32.2504         36
  32.2690         44
  32.2876         38
  32.3061         41
  32.3247         54
  32.3433         63
  32.3619         32
  32.3804         37
  32.3990         52
  32.4176         43
  32.4362         48
  32.4547         48
  32.4733         48
  32.4919         59
  32.5105         39
  32.5290         52
  32.5476         55
  32.5662         65
  32.5848         47
  32.6033         53
  32.6219         48
  32.6405         54
  32.6591         50
  32.6776         47
  32.6962         44
  32.7148         44
  32.7334         39
  32.7519         41
  32.7705         46
  32.7891         41
  32.8077         51
  32.8262         41
  32.8448         51
  32.8634         65
  32.8820         35
  32.9006         40
  32.9191         41
  32.9377         45
  32.9563         40
  32.9749         32
  32.9934         54
  33.0120         47
  33.0306         44
  33.0492         42
  33.0677         46
  33.0863         46
  33.1049         35
  33.1235         43
  33.1420         37
  33.1606         53
  33.1792         43
  33.1978         56
  33.2163         43
  33.2349         35
  33.2535         44
  33.2721         50
  33.2906         43
  33.3092         47
  33.3278         51
  33.3464         33
  33.3649         43
  33.3835         41
  33.4021         51
  33.4207         43
  33.4392         44
  33.4578         52
  33.4764         37
  33.4950         46
  33.5135         38
  33.5321         38
  33.5507         37
  33.5693         48
  33.5878         53
  33.6064         44
  33.6250         38
  33.6436         42
  33.6622         48
  33.6807         32
  33.6993         41
  33.7179         46
  33.7365         44
  33.7550         43
  33.7736         60
  33.7922         45
  33.8108         55
  33.8293         45
  33.8479         36
  33.8665         38
  33.8851         44
  33.9036         49
  33.9222         48
  33.9408         51
  33.9594         35
  33.9779         42
  33.9965         46
  34.0151         51
  34.0337         53
  34.0522         40
  34.0708         38
  34.0894         38
  34.1080         45
  34.1265         32
  34.1451         27
  34.1637         36
  34.1823         43
  34.2008         35
  34.2194         43
  34.2380         35
  34.2566         47
  34.2751         41
  34.2937         43
  34.3123         47
  34.3309         37
  34.3494         40
  34.3680         54
  34.3866         45
  34.4052         44
  34.4238         48
  34.4423         41
  34.4609         39
  34.4795         36
  34.4981         40
  34.5166         37
  34.5352         51
  34.5538         60
  34.5724         53
  34.5909         49
  34.6095         53
  34.6281         55
  34.6467         60
  34.6652         41
  34.6838         65
  34.7024         43
  34.7210         48
  34.7395         49
  34.7581         45
  34.7767         65
  34.7953         53
  34.8138         60
  34.8324         53
  34.8510         44
  34.8696         53
  34.8881         46
  34.9067         46
  34.9253         52
  34.9439         44
  34.9624         36
  34.9810         36
  34.9996         50
  35.0182         34
  35.0367         53
  35.0553         29
  35.0739         43
  35.0925         47
  35.1110         36
  35.1296         44
  35.1482         45
  35.1668         40
  35.1854         49
  35.2039         37
  35.2225         44
  35.2411         46
  35.2597         42
  35.2782         44
  35.2968         38
  35.3154         47
  35.3340         39
  35.3525         37
  35.3711         30
  35.3897         32
  35.4083         34
  35.4268         36
  35.4454         42
  35.4640         43
  35.4826         45
  35.5011         43
  35.5197         26
  35.5383         40
  35.5569         35
  35.5754         25
  35.5940         43
  35.6126         38
  35.6312         48
  35.6497         31
  35.6683         44
  35.6869         38
  35.7055         33
  35.7240         31
  35.7426         40
  35.7612         44
  35.7798         35
  35.7983         32
  35.8169         33
  35.8355         30
  35.8541         34
  35.8726         37
  35.8912         45
  35.9098         42
  35.9284         43
  35.9469         27
  35.9655         43
  35.9841         29
  36.0027         33
  36.0213         33
  36.0398         40
  36.0584         43
  36.0770         46
  36.0956         32
  36.1141         27
  36.1327         42
  36.1513         35
  36.1699         30
  36.1884         39
  36.2070         24
  36.2256         37
  36.2442         37
  36.2627         52
  36.2813         31
  36.2999         32
  36.3185         30
  36.3370         31
  36.3556         24
  36.3742         34
  36.3928         37
  36.4113         32
  36.4299         29
  36.4485         31
  36.4671         39
  36.4856         40
  36.5042         37
  36.5228         29
  36.5414         26
  36.5599         34
  36.5785         31
  36.5971         27
  36.6157         35
  36.6342         36
  36.6528         29
  36.6714         28
  36.6900         40
  36.7085         25
  36.7271         31
  36.7457         25
  36.7643         36
  36.7829         36
  36.8014         36
  36.8200         35
  36.8386         45
  36.8572         38
  36.8757         30
  36.8943         35
  36.9129         33
  36.9315         26
  36.9500         36
  36.9686         34
  36.9872         34
  37.0058         40
  37.0243         33
  37.0429         24
  37.0615         29
  37.0801         39
  37.0986         36
  37.1172         36
  37.1358         38
  37.1544         41
  37.1729         27
  37.1915         36
  37.2101         33
  37.2287         35
  37.2472         30
  37.2658         38
  37.2844         34
  37.3030         44
  37.3215         41
  37.3401         40
  37.3587         33
  37.3773         45
  37.3958         31
  37.4144         41
  37.4330         59
  37.4516         51
  37.4701         37
  37.4887         41
  37.5073         52
  37.5259         44
  37.5445         47
  37.5630         56
  37.5816         43
  37.6002         45
  37.6188         34
  37.6373         36
  37.6559         32
  37.6745         30
  37.6931         32
  37.7116         35
  37.7302         27
  37.7488         41
  37.7674         27
  37.7859         26
  37.8045         31
  37.8231         31
  37.8417         38
  37.8602         25
  37.8788         20
  37.8974         34
  37.9160         33
  37.9345         27
  37.9531         29
  37.9717         26
  37.9903         39
  38.0088         31
  38.0274         36
  38.0460         27
  38.0646         32
  38.0831         28
  38.1017         21
  38.1203         30
  38.1389         30
  38.1574         30
  38.1760         40
  38.1946         30
  38.2132         38
  38.2317         33
  38.2503         30
  38.2689         23
  38.2875         36
  38.3061         32
  38.3246         34
  38.3432         19
  38.3618         41
  38.3804         33
  38.3989         35
  38.4175         34
  38.4361         30
  38.4547         24
  38.4732         23
  38.4918         30
  38.5104         28
  38.5290         27
  38.5475         30
  38.5661         29
  38.5847         30
  38.6033         25
  38.6218         36
  38.6404         28
  38.6590         27
  38.6776         29
  38.6961         37
  38.7147         30
  38.7333         27
  38.7519         35
  38.7704         22
  38.7890         33
  38.8076         42
  38.8262         43
  38.8447         44
  38.8633         30
  38.8819         32
  38.9005         32
  38.9190         27
  38.9376         35
  38.9562         22
  38.9748         31
  38.9933         35
  39.0119         25
  39.0305         30
  39.0491         26
  39.0677         31
  39.0862         25
  39.1048         17
  39.1234         44
  39.1420         32
  39.1605         32
  39.1791         27
  39.1977         21
  39.2163         27
  39.2348         33
  39.2534         29
  39.2720         37
  39.2906         34
  39.3091         37
  39.3277         29
  39.3463         28
  39.3649         33
  39.3834         31
  39.4020         31
  39.4206         33
  39.4392         26
  39.4577         32
  39.4763         26
  39.4949         26
  39.5135         27
  39.5320         20
  39.5506         35
  39.5692         28
  39.5878         26
  39.6063         44
  39.6249         26
  39.6435         27
  39.6621         26
  39.6806         33
  39.6992         27
  39.7178         29
  39.7364         31
  39.7549         33
  39.7735         24
  39.7921         26
  39.8107         28
  39.8293         32
  39.8478         31
  39.8664         31
  39.8850         31
  39.9036         29
  39.9221         24
  39.9407         31
  39.9593         31
  39.9779         40
  39.9964         31
  40.0150         35
  40.0336         42
  40.0522         25
  40.0707         22
  40.0893         29
  40.1079         32
  40.1265         26
  40.1450         27
  40.1636         35
  40.1822         22
  40.2008         36
  40.2193         36
  40.2379         31
  40.2565         31
  40.2751         29
  40.2936         39
  40.3122         25
  40.3308         37
  40.3494         33
  40.3679         29
  40.3865         37
  40.4051         19
  40.4237         37
  40.4422         33
  40.4608         27
  40.4794         27
  40.4980         34
  40.5165         22
  40.5351         21
  40.5537         33
  40.5723         37
  40.5908         33
  40.6094         31
  40.6280         27
  40.6466         33
  40.6652         29
  40.6837         39
  40.7023         25
  40.7209         29
  40.7395         30
  40.7580         22
  40.7766         34
  40.7952         33
  40.8138         34
  40.8323         33
  40.8509         29
  40.8695         21
  40.8881         23
  40.9066         34
  40.9252         35
  40.9438         24
  40.9624         28
  40.9809         24
  40.9995         36
  41.0181         27
  41.0367         33
  41.0552         30
  41.0738         28
  41.0924         26
  41.1110         23
  41.1295         26
  41.1481         39
  41.1667         31
  41.1853         21
  41.2038         23
  41.2224         30
  41.2410         19
  41.2596         25
  41.2781         31
  41.2967         32
  41.3153         27
  41.3339         29
  41.3524         38
  41.3710         24
  41.3896         32
  41.4082         21
  41.4268         27
  41.4453         33
  41.4639         35
  41.4825         25
  41.5011         23
  41.5196         33
  41.5382         32
  41.5568         33
  41.5754         37
  41.5939         30
  41.6125         27
  41.6311         26
  41.6497         18
  41.6682         27
  41.6868         27
  41.7054         15
  41.7240         27
  41.7425         21
  41.7611         27
  41.7797         31
  41.7983         17
  41.8168         33
  41.8354         31
  41.8540         25
  41.8726         20
  41.8911         25
  41.9097         22
  41.9283         26
  41.9469         24
  41.9654         26
  41.9840         28
  42.0026         25
  42.0212         27
  42.0397         22
  42.0583         22
  42.0769         30
  42.0955         26
  42.1140         29
  42.1326         33
  42.1512         29
  42.1698         23
  42.1884         35
  42.2069         38
  42.2255         37
  42.2441         35
  42.2627         33
  42.2812         28
  42.2998         20
  42.3184         21
  42.3370         28
  42.3555         27
  42.3741         30
  42.3927         30
  42.4113         20
  42.4298         25
  42.4484         24
  42.4670         26
  42.4856         27
  42.5041         33
  42.5227         35
  42.5413         29
  42.5599         38
  42.5784         31
  42.5970         15
  42.6156         34
  42.6342         28
  42.6527         21
  42.6713         17
  42.6899         30
  42.7085         32
  42.7270         27
  42.7456         30
  42.7642         22
  42.7828         34
  42.8013         25
  42.8199         30
  42.8385         24
  42.8571         22
  42.8756         24
  42.8942         39
  42.9128         41
  42.9314         27
  42.9500         36
  42.9685         33
  42.9871         25
  43.0057         24
  43.0243         28
  43.0428         28
  43.0614         26
  43.0800         32
  43.0986         26
  43.1171         20
  43.1357         25
  43.1543         24
  43.1729         40
  43.1914         28
  43.2100         28
  43.2286         36
  43.2472         24
  43.2657         48
  43.2843         26
  43.3029         35
  43.3215         33
  43.3400         34
  43.3586         20
  43.3772         35
  43.3958         27
  43.4143         29
  43.4329         34
  43.4515         32
  43.4701         34
  43.4886         40
  43.5072         47
  43.5258         46
  43.5444         46
  43.5629         28
  43.5815         23
  43.6001         32
  43.6187         41
  43.6372         37
  43.6558         34
  43.6744         26
  43.6930         22
  43.7116         35
  43.7301         36
  43.7487         32
  43.7673         22
  43.7859         21
  43.8044         24
  43.8230         23
  43.8416         31
  43.8602         21
  43.8787         19
  43.8973         26
  43.9159         27
  43.9345         17
  43.9530         16
  43.9716         21
  43.9902         34
  44.0088         29
  44.0273         26
  44.0459         34
  44.0645         35
  44.0831         36
  44.1016         26
  44.1202         33
  44.1388         29
  44.1574         23
  44.1759         27
  44.1945         24
  44.2131         24
  44.2317         21
  44.2502         30
  44.2688         29
  44.2874         35
  44.3060         24
  44.3245         30
  44.3431         28
  44.3617         32
  44.3803         35
  44.3988         27
  44.4174         20
  44.4360         22
  44.4546         23
  44.4732         36
  44.4917         31
  44.5103         13
  44.5289         26
  44.5475         22
  44.5660         28
  44.5846         24
  44.6032         26
  44.6218         24
  44.6403         23
  44.6589         22
  44.6775         27
  44.6961         33
  44.7146         30
  44.7332         26
  44.7518         24
  44.7704         23
  44.7889         29
  44.8075         30
  44.8261         26
  44.8447         17
  44.8632         15
  44.8818         23
  44.9004         24
  44.9190         27
  44.9375         26
  44.9561         29
  44.9747         22
  44.9933         26
  45.0118         27
  45.0304         32
  45.0490         24
  45.0676         35
  45.0861         20
  45.1047         25
  45.1233         32
  45.1419         29
  45.1604         30
  45.1790         26
  45.1976         23
  45.2162         36
  45.2347         26
  45.2533         26
  45.2719         31
  45.2905         21
  45.3091         24
  45.3276         23
  45.3462         30
  45.3648         24
  45.3834         32
  45.4019         29
  45.4205         29
  45.4391         16
  45.4577         25
  45.4762         24
  45.4948         26
  45.5134         26
  45.5320         21
  45.5505         37
  45.5691         28
  45.5877         24
  45.6063         18
  45.6248         25
  45.6434         29
  45.6620         20
  45.6806         27
  45.6991         21
  45.7177         24
  45.7363         27
  45.7549         26
  45.7734         21
  45.7920         19
  45.8106         26
  45.8292         30
  45.8477         28
  45.8663         27
  45.8849         27
  45.9035         22
  45.9220         17
  45.9406         24
  45.9592         19
  45.9778         19
  45.9963         25
  46.0149         33
  46.0335         21
  46.0521         23
  46.0707         16
  46.0892         15
  46.1078         29
  46.1264         20
  46.1450         26
  46.1635         23
  46.1821         34
  46.2007         24
  46.2193         23
  46.2378         25
  46.2564         38
  46.2750         34
  46.2936         25
  46.3121         19
  46.3307         29
  46.3493         21
  46.3679         26
  46.3864         22
  46.4050         26
  46.4236         33
  46.4422         27
  46.4607         31
  46.4793         23
  46.4979         10
  46.5165         23
  46.5350         22
  46.5536         18
  46.5722         25
  46.5908         21
  46.6093         20
  46.6279         13
  46.6465         24
  46.6651         24
  46.6836         24
  46.7022         33
  46.7208         17
  46.7394         18
  46.7579         18
  46.7765         22
  46.7951         32
  46.8137         29
  46.8323         23
  46.8508         30
  46.8694         26
  46.8880         22
  46.9066         21
  46.9251         22
  46.9437         20
  46.9623         25
  46.9809         32
  46.9994         21
  47.0180         29
  47.0366         25
  47.0552         19
  47.0737         22
  47.0923          9
  47.1109         15
  47.1295         27
  47.1480         26
  47.1666         13
  47.1852         23
  47.2038         19
  47.2223         25
  47.2409         28
  47.2595         25
  47.2781         23
  47.2966         31
  47.3152         28
  47.3338         27
  47.3524         14
  47.3709         17
  47.3895         21
  47.4081         20
  47.4267         17
  47.4452         18
  47.4638         16
  47.4824         23
  47.5010         31
  47.5195         22
  47.5381         15
  47.5567         21
  47.5753         16
  47.5939         21
  47.6124         20
  47.6310         21
  47.6496         28
  47.6682         27
  47.6867         20
  47.7053         23
  47.7239         24
  47.7425         23
  47.7610         22
  47.7796         29
  47.7982         18
  47.8168         26
  47.8353         27
  47.8539         25
  47.8725         23
  47.8911         23
  47.9096         23
  47.9282         16
  47.9468         21
  47.9654         24
  47.9839         21
  48.0025         21
  48.0211         24
  48.0397         32
  48.0582         26
  48.0768         19
  48.0954         19
  48.1140         18
  48.1325         27
  48.1511         21
  48.1697         20
  48.1883         22
  48.2068         26
  48.2254         23
  48.2440         21
  48.2626         28
  48.2811         19
  48.2997         18
  48.3183         20
  48.3369         24
  48.3555         23
  48.3740         29
  48.3926         19
  48.4112         14
  48.4298         15
  48.4483         20
  48.4669         21
  48.4855         28
  48.5041         36
  48.5226         16
  48.5412         20
  48.5598         21
  48.5784         26
  48.5969         27
  48.6155         23
  48.6341         30
  48.6527         24
  48.6712         32
  48.6898         26
  48.7084         25
  48.7270         22
  48.7455         18
  48.7641         43
  48.7827         25
  48.8013         18
  48.8198         23
  48.8384         27
  48.8570         24
  48.8756         29
  48.8941         31
  48.9127         30
  48.9313         32
  48.9499         27
  48.9684         48
  48.9870         32
  49.0056         28
  49.0242         28
  49.0427         31
  49.0613         35
  49.0799         22
  49.0985         36
  49.1171         18
  49.1356         24
  49.1542         26
  49.1728         22
  49.1914         18
  49.2099         21
  49.2285         19
  49.2471         22
  49.2657         21
  49.2842         13
  49.3028         20
  49.3214         28
  49.3400         27
  49.3585         27
  49.3771         19
  49.3957         27
  49.4143         23
  49.4328         26
  49.4514         28
  49.4700         30
  49.4886         20
  49.5071         13
  49.5257         30
  49.5443         26
  49.5629         29
  49.5814         22
  49.6000         20
  49.6186         24
  49.6372         22
  49.6557         18
  49.6743         21
  49.6929         12
  49.7115         27
  49.7300         16
  49.7486         23
  49.7672         21
  49.7858         24
  49.8043         14
  49.8229         21
  49.8415         15
  49.8601         19
  49.8786         13
  49.8972         30
  49.9158         26
  49.9344         28
  49.9530         30
  49.9715         14
  49.9901         24
  50.0087         12
  50.0273         24
  50.0458         19
  50.0644         21
  50.0830         30
  50.1016         27
  50.1201         23
  50.1387         23
  50.1573         31
  50.1759         18
  50.1944         16
  50.2130         27
  50.2316         26
  50.2502         18
  50.2687         28
  50.2873         22
  50.3059         27
  50.3245         21
  50.3430         17
  50.3616         21
  50.3802         20
  50.3988         29
  50.4173         13
  50.4359         21
  50.4545         21
  50.4731         29
  50.4916         20
  50.5102         17
  50.5288         17
  50.5474         22
  50.5659         29
  50.5845         23
  50.6031         23
  50.6217         29
  50.6402         19
  50.6588         20
  50.6774         27
  50.6960         21
  50.7146         12
  50.7331         26
  50.7517         31
  50.7703         22
  50.7889         23
  50.8074         26
  50.8260         22
  50.8446         22
  50.8632         17
  50.8817         21
  50.9003         23
  50.9189         25
  50.9375         30
  50.9560         19
  50.9746         29
  50.9932         18
  51.0118         26
  51.0303         21
  51.0489         36
  51.0675         24
  51.0861         20
  51.1046         18
  51.1232         21
  51.1418         19
  51.1604         20
  51.1789         21
  51.1975         30
  51.2161         27
  51.2347         23
  51.2532         21
  51.2718         26
  51.2904         24
  51.3090         16
  51.3275         24
  51.3461         18
  51.3647         19
  51.3833         22
  51.4018         29
  51.4204         28
  51.4390         22
  51.4576         26
  51.4762         23
  51.4947         19
  51.5133         26
  51.5319         25
  51.5505         27
  51.5690         22
  51.5876         17
  51.6062         31
  51.6248         24
  51.6433         28
  51.6619         22
  51.6805         21
  51.6991         22
  51.7176         25
  51.7362         23
  51.7548         24
  51.7734         26
  51.7919         19
  51.8105         26
  51.8291         32
  51.8477         28
  51.8662         29
  51.8848         15
  51.9034         22
  51.9220         28
  51.9405         28
  51.9591         27
  51.9777         20
  51.9963         26
  52.0148         27
  52.0334         18
  52.0520         29
  52.0706         29
  52.0891         23
  52.1077         15
  52.1263         19
  52.1449         23
  52.1634         20
  52.1820         24
  52.2006         21
  52.2192         24
  52.2378         14
  52.2563         20
  52.2749         23
  52.2935         16
  52.3121         25
  52.3306         13
  52.3492         23
  52.3678         23
  52.3864         23
  52.4049         21
  52.4235         27
  52.4421         25
  52.4607         23
  52.4792         19
  52.4978         28
  52.5164         19
  52.5350         19
  52.5535         28
  52.5721         20
  52.5907         34
  52.6093         22
  52.6278         20
  52.6464         32
  52.6650         31
  52.6836         23
  52.7021         30
  52.7207         25
  52.7393         24
  52.7579         18
  52.7764         19
  52.7950         24
  52.8136         27
  52.8322         26
  52.8507         24
  52.8693         31
  52.8879         25
  52.9065         23
  52.9250         23
  52.9436         20
  52.9622         26
  52.9808         20
  52.9994         26
  53.0179         19
  53.0365         22
  53.0551         27
  53.0737         24
  53.0922         13
  53.1108         21
  53.1294         18
  53.1480         22
  53.1665         24
  53.1851         29
  53.2037         19
  53.2223         17
  53.2408         24
  53.2594         25
  53.2780         27
  53.2966         26
  53.3151         20
  53.3337         28
  53.3523         26
  53.3709         16
  53.3894         16
  53.4080         19
  53.4266         17
  53.4452         24
  53.4637         14
  53.4823         22
  53.5009         29
  53.5195         28
  53.5380         22
  53.5566         16
  53.5752         25
  53.5938         23
  53.6123         35
  53.6309         24
  53.6495         22
  53.6681         19
  53.6866         35
  53.7052         33
  53.7238         15
  53.7424         19
  53.7610         17
  53.7795         27
  53.7981         28
  53.8167         28
  53.8353         26
  53.8538         24
  53.8724         16
  53.8910         17
  53.9096         12
  53.9281         31
  53.9467         34
  53.9653         28
  53.9839         34
  54.0024         38
  54.0210         30
  54.0396         18
  54.0582         20
  54.0767         35
  54.0953         27
  54.1139         30
  54.1325         18
  54.1510         26
  54.1696         15
  54.1882         27
  54.2068         27
  54.2253         23
  54.2439         25
  54.2625         21
  54.2811         21
  54.2996          8
  54.3182         18
  54.3368         27
  54.3554         28
  54.3739         20
  54.3925         18
  54.4111         26
  54.4297         21
  54.4482         30
  54.4668         24
  54.4854         11
  54.5040         23
  54.5225         23
  54.5411         24
  54.5597         17
  54.5783         16
  54.5969         18
  54.6154         13
  54.6340         22
  54.6526         31
  54.6712         20
  54.6897         24
  54.7083         18
  54.7269         21
  54.7455         24
  54.7640         17
  54.7826         17
  54.8012         19
  54.8198         17
  54.8383         28
  54.8569         15
  54.8755         24
  54.8941         19
  54.9126         21
  54.9312         19
  54.9498         29
  54.9684         20
  54.9869         20
  55.0055         22
  55.0241         13
  55.0427         21
  55.0612         19
  55.0798         18
  55.0984         23
  55.1170         24
  55.1355         21
  55.1541         24
  55.1727         14
  55.1913         21
  55.2098         18
  55.2284         24
  55.2470         18
  55.2656         13
  55.2841         18
  55.3027         25
  55.3213         21
  55.3399         15
  55.3585         26
  55.3770         27
  55.3956         16
  55.4142         20
  55.4328         20
  55.4513         17
  55.4699         18
  55.4885         26
  55.5071         16
  55.5256         15
  55.5442         20
  55.5628         16
  55.5814         30
  55.5999         16
  55.6185         26
  55.6371         17
  55.6557         15
  55.6742         15
  55.6928         15
  55.7114         18
  55.7300         20
  55.7485         22
  55.7671         17
  55.7857         23
  55.8043         20
  55.8228         17
  55.8414         22
  55.8600         19
  55.8786         18
  55.8971         13
  55.9157         28
  55.9343         18
  55.9529         13
  55.9714         17
  55.9900         21
  56.0086         22
  56.0272         17
  56.0457         23
  56.0643         11
  56.0829         20
  56.1015         17
  56.1201         23
  56.1386         20
  56.1572         26
  56.1758         18
  56.1944         27
  56.2129         28
  56.2315         25
  56.2501         14
  56.2687         19
  56.2872         22
  56.3058         11
  56.3244         19
  56.3430         29
  56.3615         26
  56.3801         27
  56.3987         17
  56.4173         21
  56.4358         24
  56.4544         16
  56.4730         19
  56.4916         21
  56.5101         20
  56.5287         16
  56.5473         23
  56.5659         20
  56.5844         19
  56.6030         33
  56.6216         26
  56.6402         23
  56.6587         27
  56.6773         21
  56.6959         17
  56.7145         18
  56.7330         24
  56.7516         19
  56.7702         21
  56.7888         16
  56.8073         25
  56.8259         21
  56.8445          9
  56.8631         16
  56.8817         28
  56.9002         25
  56.9188         17
  56.9374         19
  56.9560         25
  56.9745         28
  56.9931         17
  57.0117         18
  57.0303         18
  57.0488         33
  57.0674         27
  57.0860         23
  57.1046         14
  57.1231         26
  57.1417         27
  57.1603         18
  57.1789         18
  57.1974         13
  57.2160         15
  57.2346         21
  57.2532         15
  57.2717         24
  57.2903         19
  57.3089         16
  57.3275         17
  57.3460         25
  57.3646         20
  57.3832         20
  57.4018         35
  57.4203         15
  57.4389         16
  57.4575         16
  57.4761         11
  57.4946         19
  57.5132         22
  57.5318         24
  57.5504         26
  57.5689         23
  57.5875         20
  57.6061         32
  57.6247         26
  57.6433         22
  57.6618         19
  57.6804         25
  57.6990         17
  57.7176         21
  57.7361         17
  57.7547         24
  57.7733         25
  57.7919         23
  57.8104         21
  57.8290         11
  57.8476         24
  57.8662         16
  57.8847         22
  57.9033         19
  57.9219         26
  57.9405         15
  57.9590         26
  57.9776         25
  57.9962         16
  58.0148          8
  58.0333         19
  58.0519         25
  58.0705         30
  58.0891         24
  58.1076         24
  58.1262         21
  58.1448         25
  58.1634         24
  58.1819         22
  58.2005         20
  58.2191         36
  58.2377         21
  58.2562         18
  58.2748         17
  58.2934         21
  58.3120         25
  58.3305         17
  58.3491         13
  58.3677         29
  58.3863         21
  58.4049         20
  58.4234         19
  58.4420         18
  58.4606         19
  58.4792         21
  58.4977         26
  58.5163         24
  58.5349         20
  58.5535         20
  58.5720         27
  58.5906         15
  58.6092         19
  58.6278         23
  58.6463         25
  58.6649         15
  58.6835         12
  58.7021         17
  58.7206         15
  58.7392         17
  58.7578         19
  58.7764         23
  58.7949         30
  58.8135         18
  58.8321         16
  58.8507         26
  58.8692         19
  58.8878         20
  58.9064         18
  58.9250         17
  58.9435         21
  58.9621         17
  58.9807         22
  58.9993         18
  59.0178         19
  59.0364         16
  59.0550         20
  59.0736         27
  59.0921         23
  59.1107         16
  59.1293         17
  59.1479         23
  59.1664         14
  59.1850         21
  59.2036         13
  59.2222         14
  59.2408         25
  59.2593         21
  59.2779         18
  59.2965         19
  59.3151         31
  59.3336         27
  59.3522         16
  59.3708         16
  59.3894         21
  59.4079         22
  59.4265         23
  59.4451         11
  59.4637         27
  59.4822         20
  59.5008         20
  59.5194         22
  59.5380         15
  59.5565         21
  59.5751         19
  59.5937         26
  59.6123         27
  59.6308         30
  59.6494         20
  59.6680         16
  59.6866         12
  59.7051         27
  59.7237         25
  59.7423         11
  59.7609         15
  59.7794         18
  59.7980         24
  59.8166         15
  59.8352         24
  59.8537         23
  59.8723         20
  59.8909         19
  59.9095         21
  59.9280         18
  59.9466         21
  59.9652         22
  59.9838         25
  60.0024         24
