; (content of file Y:\Sam\Apurva-07-20-2022\puck4\ML_20220718_23_SJD_0_LaB6-2min.raw)
_FILEVERSION = 3
_SAMPLE = ML_20220718_23_SJD_0_LaB6-2min
_+SAMPLE = 
_SITE = USA
_USER = Administrator
_GONIOMETER_CODE = 20
; Goniometer : D8 theta/2theta, stage : Unknown
_ATTACHMENTS_CODE = 0
_GONIOMETER_RADIUS = 200.5
_FIXED_DIVSLIT = 0.6
_FIXED_SAMPLESLIT = 0
_SOLLER_SLITS = 2
_FIXED_DETSLIT = 9.55
_MONOCHROMATOR = 0
; Incident beam monochromator : None
_SOLLER_SLITS_2 = N
_THIN_FILM = N
_BETA_FILTER = Y
_FIXED_ANTISLIT = 5.89
_ANALYZER_CODE = 0
; Received beam analyzer : None
_DATEMEASURED = "26-Jul-2022 09:30:21"
_WL_UNIT = A
_WL1 = 1.5406
_WL2 = 1.54439
_WL3 = 1.39222
_WLRATIO = 0.5
_ANODE = Cu
_V4_INF_CREATOR = XRDWizard
_V4_INF_CREATOR_VERSION = V2.9.0.22
_V4_INF_WIZARD_VERSION = V2.9.0.22
_V4_INF_WIZARD_ADDINS = V2.9.0.22
_V4_INF_WIZARD_DOCTYPE = XRD
_V4_INF_OSUSER = McQueenLab
_V4_INF_USER = Administrator
_V4_INF_SITE = USA
_V4_INF_SAMPLEID = ML_20220718_23_SJD_0_LaB6-2min

; Data for range 1
_DRIVE = COUPLED
_STEPTIME = 5.64
_STEPSIZE = 0.0185756
_STEPMODE = C
_START = 5
_THETA = 2.5
_2THETA = 5
_KHI = 0
_PHI = 0
_X = 0
_Y = 0
_Z = 0
_DETECTOR = 5
; Detector type : Unknown
_DETECTORSLIT = unkn
_AUX1 = 0
_AUX2 = 0
_AUX3 = 0
_TIMESTARTED = 15
_TEMP_RATE = -1
_TEMP_DELAY = -1
_KV = 40
_MA = 40
_RANGE_WL = 1.5406
_3DPLANE = 0
_V4_ADDITIONALDETECTOR = 257
_V4_PSD2THETA = 3.3682
_V4_PSDCHANNEL1 = 0
_V4_PSDAPERTURE = 12.68
_V4_PSDTYPE = 5
_V4_PSDFIXED = 0
_V4_COUNTERS_MASK = 4096
_V4_DRIVES_MASK = 0
_V4_ENCODERS_MASK = 0
_2THETACOUNTS = 1
; 2THETA  PSD
   5.0000        146
   5.0186        135
   5.0372        137
   5.0557        142
   5.0743        120
   5.0929        134
   5.1115        119
   5.1300        119
   5.1486        126
   5.1672        117
   5.1858        133
   5.2043        121
   5.2229        142
   5.2415        123
   5.2601        126
   5.2786        138
   5.2972        130
   5.3158        121
   5.3344        139
   5.3529         99
   5.3715        121
   5.3901        129
   5.4087        102
   5.4272        114
   5.4458        100
   5.4644        101
   5.4830        120
   5.5015        124
   5.5201        103
   5.5387        115
   5.5573        108
   5.5758        124
   5.5944         90
   5.6130         93
   5.6316        118
   5.6501        124
   5.6687        112
   5.6873        121
   5.7059        103
   5.7244        101
   5.7430         98
   5.7616         98
   5.7802         99
   5.7988        100
   5.8173        102
   5.8359        107
   5.8545        117
   5.8731         94
   5.8916         99
   5.9102        107
   5.9288         74
   5.9474         96
   5.9659         87
   5.9845         94
   6.0031        116
   6.0217         81
   6.0402        103
   6.0588         83
   6.0774        103
   6.0960         92
   6.1145         86
   6.1331         84
   6.1517        107
   6.1703        112
   6.1888         97
   6.2074        101
   6.2260         90
   6.2446         80
   6.2631         64
   6.2817         85
   6.3003        101
   6.3189        107
   6.3374         85
   6.3560        103
   6.3746         85
   6.3932         91
   6.4117         91
   6.4303         88
   6.4489        103
   6.4675         87
   6.4860         92
   6.5046         86
   6.5232         83
   6.5418         88
   6.5604         97
   6.5789         78
   6.5975         90
   6.6161         92
   6.6347         81
   6.6532         84
   6.6718         95
   6.6904         73
   6.7090         89
   6.7275         95
   6.7461         95
   6.7647         77
   6.7833         89
   6.8018         90
   6.8204         90
   6.8390         75
   6.8576         95
   6.8761         78
   6.8947         83
   6.9133         90
   6.9319         76
   6.9504         73
   6.9690         88
   6.9876         96
   7.0062         86
   7.0247         86
   7.0433         79
   7.0619         82
   7.0805         76
   7.0990         75
   7.1176         77
   7.1362         75
   7.1548         82
   7.1733         73
   7.1919         78
   7.2105         72
   7.2291         82
   7.2476         82
   7.2662         75
   7.2848         95
   7.3034         85
   7.3220         83
   7.3405         83
   7.3591         92
   7.3777         69
   7.3963         69
   7.4148         87
   7.4334         71
   7.4520         85
   7.4706         80
   7.4891         94
   7.5077         96
   7.5263         85
   7.5449         82
   7.5634         87
   7.5820         78
   7.6006         88
   7.6192         95
   7.6377         88
   7.6563         86
   7.6749         93
   7.6935         91
   7.7120         87
   7.7306         96
   7.7492         87
   7.7678         95
   7.7863         98
   7.8049         94
   7.8235         82
   7.8421         97
   7.8606         82
   7.8792         79
   7.8978         85
   7.9164         76
   7.9349        102
   7.9535         99
   7.9721         89
   7.9907         78
   8.0092         73
   8.0278         95
   8.0464         99
   8.0650         85
   8.0835         83
   8.1021         82
   8.1207         93
   8.1393        106
   8.1579         98
   8.1764        123
   8.1950        111
   8.2136         89
   8.2322        101
   8.2507        114
   8.2693         94
   8.2879         97
   8.3065         97
   8.3250         93
   8.3436         97
   8.3622         99
   8.3808        103
   8.3993         92
   8.4179         80
   8.4365        100
   8.4551         92
   8.4736        111
   8.4922         98
   8.5108         90
   8.5294        105
   8.5479        101
   8.5665        111
   8.5851        108
   8.6037        113
   8.6222         87
   8.6408         93
   8.6594        114
   8.6780         87
   8.6965         98
   8.7151        109
   8.7337        101
   8.7523        103
   8.7708        102
   8.7894        109
   8.8080         96
   8.8266        109
   8.8451        108
   8.8637         92
   8.8823         91
   8.9009        101
   8.9195        100
   8.9380        105
   8.9566        102
   8.9752        108
   8.9938        112
   9.0123         98
   9.0309        101
   9.0495        106
   9.0681        112
   9.0866        114
   9.1052        116
   9.1238        104
   9.1424        118
   9.1609         94
   9.1795        112
   9.1981        118
   9.2167        100
   9.2352        104
   9.2538        103
   9.2724        117
   9.2910        107
   9.3095        124
   9.3281        123
   9.3467         89
   9.3653        117
   9.3838        118
   9.4024        124
   9.4210        116
   9.4396        112
   9.4581        121
   9.4767         96
   9.4953         93
   9.5139        112
   9.5324        115
   9.5510        101
   9.5696        109
   9.5882        126
   9.6067         85
   9.6253        103
   9.6439        125
   9.6625        102
   9.6811        110
   9.6996         96
   9.7182        116
   9.7368        112
   9.7554        107
   9.7739        129
   9.7925        122
   9.8111        120
   9.8297        106
   9.8482        140
   9.8668        135
   9.8854        103
   9.9040        128
   9.9225        108
   9.9411        101
   9.9597        128
   9.9783        124
   9.9968        138
  10.0154        112
  10.0340        116
  10.0526        109
  10.0711        126
  10.0897        135
  10.1083        122
  10.1269         94
  10.1454        133
  10.1640        124
  10.1826        138
  10.2012        118
  10.2197        130
  10.2383        102
  10.2569        121
  10.2755        123
  10.2940        114
  10.3126        112
  10.3312         93
  10.3498        132
  10.3683        127
  10.3869        124
  10.4055        107
  10.4241        107
  10.4427        128
  10.4612        112
  10.4798        100
  10.4984        121
  10.5170        122
  10.5355        111
  10.5541        116
  10.5727        137
  10.5913        105
  10.6098        103
  10.6284        123
  10.6470         97
  10.6656        119
  10.6841        103
  10.7027        120
  10.7213        113
  10.7399        119
  10.7584        129
  10.7770        117
  10.7956        115
  10.8142        103
  10.8327        101
  10.8513        138
  10.8699        132
  10.8885        114
  10.9070        120
  10.9256        106
  10.9442        114
  10.9628        128
  10.9813        114
  10.9999        114
  11.0185        110
  11.0371        113
  11.0556        108
  11.0742        101
  11.0928        101
  11.1114        125
  11.1299        110
  11.1485        114
  11.1671        103
  11.1857        118
  11.2043        102
  11.2228        115
  11.2414        117
  11.2600        116
  11.2786         98
  11.2971        141
  11.3157        109
  11.3343        130
  11.3529        103
  11.3714         98
  11.3900        134
  11.4086        133
  11.4272        122
  11.4457        102
  11.4643        119
  11.4829        120
  11.5015        112
  11.5200        119
  11.5386        145
  11.5572        118
  11.5758        111
  11.5943        130
  11.6129        127
  11.6315        103
  11.6501        118
  11.6686         90
  11.6872        135
  11.7058        113
  11.7244        115
  11.7429        122
  11.7615        111
  11.7801        130
  11.7987        121
  11.8172        131
  11.8358        129
  11.8544        124
  11.8730        122
  11.8915        117
  11.9101        125
  11.9287        132
  11.9473        112
  11.9659        115
  11.9844        110
  12.0030        101
  12.0216        122
  12.0402        115
  12.0587        114
  12.0773        111
  12.0959        101
  12.1145        109
  12.1330        108
  12.1516        111
  12.1702        118
  12.1888        111
  12.2073        121
  12.2259        120
  12.2445        105
  12.2631        117
  12.2816        106
  12.3002         99
  12.3188        115
  12.3374        120
  12.3559        113
  12.3745        115
  12.3931        114
  12.4117        114
  12.4302        125
  12.4488        102
  12.4674         98
  12.4860         89
  12.5045         96
  12.5231        111
  12.5417         94
  12.5603        118
  12.5788        116
  12.5974        114
  12.6160        111
  12.6346        125
  12.6531        112
  12.6717        118
  12.6903        113
  12.7089        106
  12.7274        110
  12.7460         91
  12.7646        117
  12.7832         78
  12.8018        102
  12.8203        108
  12.8389        132
  12.8575        132
  12.8761        116
  12.8946        102
  12.9132        114
  12.9318        109
  12.9504        121
  12.9689        104
  12.9875        111
  13.0061        112
  13.0247         87
  13.0432         92
  13.0618        105
  13.0804        106
  13.0990         96
  13.1175         84
  13.1361         94
  13.1547        105
  13.1733        106
  13.1918         88
  13.2104        113
  13.2290        100
  13.2476        106
  13.2661         99
  13.2847        117
  13.3033        112
  13.3219        110
  13.3404        110
  13.3590        101
  13.3776         79
  13.3962         88
  13.4147         96
  13.4333         93
  13.4519        103
  13.4705        103
  13.4890         98
  13.5076        103
  13.5262         90
  13.5448         86
  13.5634        106
  13.5819         95
  13.6005         93
  13.6191        106
  13.6377         89
  13.6562         83
  13.6748        101
  13.6934         91
  13.7120        102
  13.7305        104
  13.7491        101
  13.7677         96
  13.7863         99
  13.8048        107
  13.8234         86
  13.8420        106
  13.8606         89
  13.8791         80
  13.8977         88
  13.9163         93
  13.9349         86
  13.9534         85
  13.9720        103
  13.9906         88
  14.0092         79
  14.0277         73
  14.0463         83
  14.0649         95
  14.0835         99
  14.1020         90
  14.1206         97
  14.1392         91
  14.1578         83
  14.1763         88
  14.1949         89
  14.2135         84
  14.2321         91
  14.2506         94
  14.2692         84
  14.2878         94
  14.3064         70
  14.3250         97
  14.3435         87
  14.3621         97
  14.3807         91
  14.3993         81
  14.4178         91
  14.4364         84
  14.4550         86
  14.4736         87
  14.4921         89
  14.5107         74
  14.5293         92
  14.5479         71
  14.5664         74
  14.5850         89
  14.6036        102
  14.6222         73
  14.6407         77
  14.6593         67
  14.6779         76
  14.6965         88
  14.7150         75
  14.7336         84
  14.7522         85
  14.7708         82
  14.7893         88
  14.8079         85
  14.8265         94
  14.8451         77
  14.8636         91
  14.8822         77
  14.9008         92
  14.9194         94
  14.9379         95
  14.9565         78
  14.9751         72
  14.9937         88
  15.0122         82
  15.0308         80
  15.0494         89
  15.0680         91
  15.0866        100
  15.1051         71
  15.1237         79
  15.1423         85
  15.1609         70
  15.1794         62
  15.1980         82
  15.2166         70
  15.2352         92
  15.2537         92
  15.2723         81
  15.2909         89
  15.3095         89
  15.3280         77
  15.3466         81
  15.3652         80
  15.3838         94
  15.4023         77
  15.4209         90
  15.4395         87
  15.4581         92
  15.4766         74
  15.4952         82
  15.5138         87
  15.5324         73
  15.5509         69
  15.5695         67
  15.5881         65
  15.6067         84
  15.6252         72
  15.6438         85
  15.6624         80
  15.6810         72
  15.6995         73
  15.7181        101
  15.7367         82
  15.7553         86
  15.7738         88
  15.7924         79
  15.8110         73
  15.8296         86
  15.8482         66
  15.8667         81
  15.8853        102
  15.9039         83
  15.9225         75
  15.9410         91
  15.9596         69
  15.9782         88
  15.9968         96
  16.0153         91
  16.0339         87
  16.0525         79
  16.0711         80
  16.0896         66
  16.1082         85
  16.1268         84
  16.1454         76
  16.1639         84
  16.1825         72
  16.2011         88
  16.2197         91
  16.2382         78
  16.2568         99
  16.2754         92
  16.2940         79
  16.3125         99
  16.3311         74
  16.3497         86
  16.3683         90
  16.3868         82
  16.4054         98
  16.4240         78
  16.4426         87
  16.4611         74
  16.4797         78
  16.4983         76
  16.5169         94
  16.5354         82
  16.5540         80
  16.5726         79
  16.5912         83
  16.6097         78
  16.6283         72
  16.6469         75
  16.6655         81
  16.6841         78
  16.7026         79
  16.7212         86
  16.7398         85
  16.7584         79
  16.7769         82
  16.7955         60
  16.8141         86
  16.8327         78
  16.8512         84
  16.8698         66
  16.8884         67
  16.9070         89
  16.9255         74
  16.9441         71
  16.9627         69
  16.9813         87
  16.9998         92
  17.0184         84
  17.0370         83
  17.0556         81
  17.0741         95
  17.0927         91
  17.1113         76
  17.1299         87
  17.1484         88
  17.1670         78
  17.1856         78
  17.2042         84
  17.2227         79
  17.2413         65
  17.2599         68
  17.2785         83
  17.2970         89
  17.3156         83
  17.3342         79
  17.3528         82
  17.3713         85
  17.3899         69
  17.4085         71
  17.4271         86
  17.4457         71
  17.4642        102
  17.4828         87
  17.5014         97
  17.5200         89
  17.5385         83
  17.5571         79
  17.5757         68
  17.5943         73
  17.6128         68
  17.6314         82
  17.6500         91
  17.6686         81
  17.6871         83
  17.7057         80
  17.7243         82
  17.7429         80
  17.7614         92
  17.7800         62
  17.7986         82
  17.8172         74
  17.8357         92
  17.8543         78
  17.8729         90
  17.8915         91
  17.9100         90
  17.9286        106
  17.9472         91
  17.9658         87
  17.9843         87
  18.0029         75
  18.0215         78
  18.0401         87
  18.0586         80
  18.0772         76
  18.0958         93
  18.1144         75
  18.1329         83
  18.1515         86
  18.1701         75
  18.1887         93
  18.2073         87
  18.2258         78
  18.2444         81
  18.2630         82
  18.2816         86
  18.3001         95
  18.3187         77
  18.3373         78
  18.3559         91
  18.3744         59
  18.3930         77
  18.4116         95
  18.4302         97
  18.4487         71
  18.4673         67
  18.4859         80
  18.5045         70
  18.5230         71
  18.5416         80
  18.5602         74
  18.5788         78
  18.5973        100
  18.6159         75
  18.6345         84
  18.6531         80
  18.6716         77
  18.6902         85
  18.7088         91
  18.7274         76
  18.7459         74
  18.7645         82
  18.7831         82
  18.8017         91
  18.8202         88
  18.8388         77
  18.8574         74
  18.8760         91
  18.8945         95
  18.9131         90
  18.9317         87
  18.9503         84
  18.9689         83
  18.9874         81
  19.0060         82
  19.0246         99
  19.0432         85
  19.0617         77
  19.0803         74
  19.0989         77
  19.1175         73
  19.1360         78
  19.1546         96
  19.1732         83
  19.1918         70
  19.2103         81
  19.2289         81
  19.2475         70
  19.2661         84
  19.2846         92
  19.3032         79
  19.3218         97
  19.3404         72
  19.3589         83
  19.3775        103
  19.3961         90
  19.4147         84
  19.4332         86
  19.4518         74
  19.4704         94
  19.4890         85
  19.5075         81
  19.5261         78
  19.5447         76
  19.5633         80
  19.5818         85
  19.6004         80
  19.6190         89
  19.6376         78
  19.6561         94
  19.6747         94
  19.6933         81
  19.7119         84
  19.7305         96
  19.7490         70
  19.7676         95
  19.7862         88
  19.8048         83
  19.8233         82
  19.8419         95
  19.8605         86
  19.8791         91
  19.8976        102
  19.9162         80
  19.9348         94
  19.9534         89
  19.9719         81
  19.9905         85
  20.0091        108
  20.0277        100
  20.0462         87
  20.0648         88
  20.0834         92
  20.1020         98
  20.1205         85
  20.1391         85
  20.1577         77
  20.1763         99
  20.1948         82
  20.2134        101
  20.2320         89
  20.2506         70
  20.2691         89
  20.2877        100
  20.3063         97
  20.3249         96
  20.3434         87
  20.3620         77
  20.3806         79
  20.3992         90
  20.4177         93
  20.4363         92
  20.4549         91
  20.4735         98
  20.4921         81
  20.5106         83
  20.5292         92
  20.5478         88
  20.5664        128
  20.5849         91
  20.6035         92
  20.6221         99
  20.6407         88
  20.6592        103
  20.6778         98
  20.6964         88
  20.7150         97
  20.7335         96
  20.7521         90
  20.7707         93
  20.7893        103
  20.8078         85
  20.8264        106
  20.8450        105
  20.8636        103
  20.8821         88
  20.9007        110
  20.9193        112
  20.9379         96
  20.9564         93
  20.9750         83
  20.9936         97
  21.0122         93
  21.0307        105
  21.0493         82
  21.0679         94
  21.0865        103
  21.1050         99
  21.1236        100
  21.1422        118
  21.1608        109
  21.1793        122
  21.1979        165
  21.2165        150
  21.2351        162
  21.2537        156
  21.2722        154
  21.2908        167
  21.3094        163
  21.3280        172
  21.3465        240
  21.3651        269
  21.3837        225
  21.4023        197
  21.4208        168
  21.4394        106
  21.4580        104
  21.4766         89
  21.4951         94
  21.5137         97
  21.5323        109
  21.5509        111
  21.5694         95
  21.5880         95
  21.6066         82
  21.6252         84
  21.6437         88
  21.6623         84
  21.6809        104
  21.6995        117
  21.7180         94
  21.7366         96
  21.7552         82
  21.7738         94
  21.7923        116
  21.8109        100
  21.8295         93
  21.8481        101
  21.8666         94
  21.8852        100
  21.9038         77
  21.9224         93
  21.9409        114
  21.9595         92
  21.9781        102
  21.9967        102
  22.0152        111
  22.0338         84
  22.0524         99
  22.0710         89
  22.0896         89
  22.1081        106
  22.1267        120
  22.1453         99
  22.1639         90
  22.1824         98
  22.2010         90
  22.2196         99
  22.2382         88
  22.2567         83
  22.2753        117
  22.2939        109
  22.3125         96
  22.3310        107
  22.3496         81
  22.3682        111
  22.3868        111
  22.4053        106
  22.4239        102
  22.4425         99
  22.4611        107
  22.4796         91
  22.4982        109
  22.5168         95
  22.5354         97
  22.5539         98
  22.5725        112
  22.5911        121
  22.6097        101
  22.6282        102
  22.6468         86
  22.6654        108
  22.6840         96
  22.7025        106
  22.7211         96
  22.7397        107
  22.7583        107
  22.7768         90
  22.7954        100
  22.8140        116
  22.8326        105
  22.8512         88
  22.8697         96
  22.8883         84
  22.9069         90
  22.9255        105
  22.9440         83
  22.9626         93
  22.9812         97
  22.9998         97
  23.0183         98
  23.0369         99
  23.0555         93
  23.0741        112
  23.0926        106
  23.1112         90
  23.1298         99
  23.1484         99
  23.1669        115
  23.1855        110
  23.2041         80
  23.2227        102
  23.2412         92
  23.2598         98
  23.2784         99
  23.2970         95
  23.3155        110
  23.3341         95
  23.3527         85
  23.3713         94
  23.3898         91
  23.4084         90
  23.4270        102
  23.4456        119
  23.4641        107
  23.4827         95
  23.5013        104
  23.5199        104
  23.5384         97
  23.5570        116
  23.5756        117
  23.5942        123
  23.6128         93
  23.6313        103
  23.6499         97
  23.6685        121
  23.6871         92
  23.7056        107
  23.7242        111
  23.7428         97
  23.7614         90
  23.7799         94
  23.7985         99
  23.8171        101
  23.8357         96
  23.8542         99
  23.8728        100
  23.8914         93
  23.9100         95
  23.9285        104
  23.9471        111
  23.9657        107
  23.9843         91
  24.0028         97
  24.0214         85
  24.0400         97
  24.0586        113
  24.0771         89
  24.0957         98
  24.1143        111
  24.1329        122
  24.1514        113
  24.1700        106
  24.1886         89
  24.2072         79
  24.2257         99
  24.2443        115
  24.2629        101
  24.2815         88
  24.3000        113
  24.3186        113
  24.3372        105
  24.3558         90
  24.3744         87
  24.3929        114
  24.4115         88
  24.4301        107
  24.4487        104
  24.4672         98
  24.4858        114
  24.5044        106
  24.5230         95
  24.5415         95
  24.5601         89
  24.5787        106
  24.5973        106
  24.6158        111
  24.6344        105
  24.6530        108
  24.6716        110
  24.6901        103
  24.7087         99
  24.7273         92
  24.7459         93
  24.7644        118
  24.7830        119
  24.8016         90
  24.8202         87
  24.8387        106
  24.8573         99
  24.8759        102
  24.8945        105
  24.9130        105
  24.9316         97
  24.9502         95
  24.9688        105
  24.9873         89
  25.0059         94
  25.0245         90
  25.0431         87
  25.0616         92
  25.0802         96
  25.0988         94
  25.1174         99
  25.1360         77
  25.1545         93
  25.1731        102
  25.1917        105
  25.2103         96
  25.2288         82
  25.2474         89
  25.2660         89
  25.2846         91
  25.3031        106
  25.3217        105
  25.3403         93
  25.3589         92
  25.3774        100
  25.3960         88
  25.4146        108
  25.4332         89
  25.4517        100
  25.4703        100
  25.4889        103
  25.5075        107
  25.5260         99
  25.5446         95
  25.5632         89
  25.5818        102
  25.6003        104
  25.6189        112
  25.6375        104
  25.6561         94
  25.6746         85
  25.6932         93
  25.7118         84
  25.7304         93
  25.7489        104
  25.7675         83
  25.7861        113
  25.8047        105
  25.8232        103
  25.8418         80
  25.8604         90
  25.8790         96
  25.8976        100
  25.9161         83
  25.9347        104
  25.9533         88
  25.9719         80
  25.9904         91
  26.0090         99
  26.0276        101
  26.0462         85
  26.0647        104
  26.0833         88
  26.1019        105
  26.1205         94
  26.1390        104
  26.1576         90
  26.1762        101
  26.1948        109
  26.2133         74
  26.2319         89
  26.2505        100
  26.2691         90
  26.2876         98
  26.3062         99
  26.3248         96
  26.3434        103
  26.3619         92
  26.3805        108
  26.3991        105
  26.4177        107
  26.4362        114
  26.4548         96
  26.4734        100
  26.4920         90
  26.5105         84
  26.5291        106
  26.5477        114
  26.5663        110
  26.5848         84
  26.6034         86
  26.6220         84
  26.6406         87
  26.6591         90
  26.6777         88
  26.6963         91
  26.7149         93
  26.7335         93
  26.7520         86
  26.7706        105
  26.7892         98
  26.8078         92
  26.8263         84
  26.8449        102
  26.8635         87
  26.8821         94
  26.9006         97
  26.9192         95
  26.9378        101
  26.9564        126
  26.9749        109
  26.9935         81
  27.0121        107
  27.0307        109
  27.0492         84
  27.0678        106
  27.0864        101
  27.1050         93
  27.1235         91
  27.1421         94
  27.1607        107
  27.1793        119
  27.1978        116
  27.2164        116
  27.2350        119
  27.2536        122
  27.2721         94
  27.2907        108
  27.3093         89
  27.3279         93
  27.3464         85
  27.3650         84
  27.3836        104
  27.4022         98
  27.4207         98
  27.4393         97
  27.4579         90
  27.4765         95
  27.4951         88
  27.5136        100
  27.5322         84
  27.5508         75
  27.5694        103
  27.5879         72
  27.6065         83
  27.6251         78
  27.6437         76
  27.6622         91
  27.6808         84
  27.6994         92
  27.7180         75
  27.7365         87
  27.7551         85
  27.7737         86
  27.7923        100
  27.8108         67
  27.8294         88
  27.8480        100
  27.8666         89
  27.8851         80
  27.9037        103
  27.9223         93
  27.9409         74
  27.9594         93
  27.9780         89
  27.9966         87
  28.0152         80
  28.0337         84
  28.0523         73
  28.0709         65
  28.0895         88
  28.1080         83
  28.1266         94
  28.1452         78
  28.1638         91
  28.1823         75
  28.2009         80
  28.2195         76
  28.2381         77
  28.2567         72
  28.2752         78
  28.2938         88
  28.3124         90
  28.3310         87
  28.3495         89
  28.3681         81
  28.3867         70
  28.4053         87
  28.4238         85
  28.4424         84
  28.4610         97
  28.4796         78
  28.4981         84
  28.5167         90
  28.5353         71
  28.5539         81
  28.5724         93
  28.5910         84
  28.6096         76
  28.6282         96
  28.6467         80
  28.6653         92
  28.6839         79
  28.7025         74
  28.7210         82
  28.7396         90
  28.7582         85
  28.7768         75
  28.7953         85
  28.8139         80
  28.8325         94
  28.8511        103
  28.8696         87
  28.8882         93
  28.9068         95
  28.9254         54
  28.9439         87
  28.9625         87
  28.9811         93
  28.9997         90
  29.0183         85
  29.0368         91
  29.0554         79
  29.0740         81
  29.0926         98
  29.1111         83
  29.1297         75
  29.1483         68
  29.1669         87
  29.1854         96
  29.2040         73
  29.2226         67
  29.2412         68
  29.2597         83
  29.2783         79
  29.2969         84
  29.3155         83
  29.3340         79
  29.3526         86
  29.3712         71
  29.3898         83
  29.4083         89
  29.4269         83
  29.4455         75
  29.4641         73
  29.4826         82
  29.5012         89
  29.5198         80
  29.5384         75
  29.5569         85
  29.5755         94
  29.5941         52
  29.6127         70
  29.6312         69
  29.6498         79
  29.6684         82
  29.6870         76
  29.7055         73
  29.7241         68
  29.7427         82
  29.7613         72
  29.7799         82
  29.7984         80
  29.8170         65
  29.8356         89
  29.8542         85
  29.8727         83
  29.8913         83
  29.9099         80
  29.9285         77
  29.9470         66
  29.9656         80
  29.9842         86
  30.0028         72
  30.0213         77
  30.0399         71
  30.0585         66
  30.0771         66
  30.0956         77
  30.1142         86
  30.1328         80
  30.1514         90
  30.1699         64
  30.1885         76
  30.2071         73
  30.2257         80
  30.2442         84
  30.2628         60
  30.2814         99
  30.3000         74
  30.3185        101
  30.3371        115
  30.3557        125
  30.3743        139
  30.3928        194
  30.4114        133
  30.4300        114
  30.4486        111
  30.4671        123
  30.4857         88
  30.5043         94
  30.5229         87
  30.5415         96
  30.5600         75
  30.5786         71
  30.5972         81
  30.6158         76
  30.6343         82
  30.6529         77
  30.6715         63
  30.6901         85
  30.7086         71
  30.7272         58
  30.7458         70
  30.7644         61
  30.7829         65
  30.8015         67
  30.8201         63
  30.8387         75
  30.8572         74
  30.8758         73
  30.8944         99
  30.9130         75
  30.9315         67
  30.9501         68
  30.9687         68
  30.9873         67
  31.0058         73
  31.0244         75
  31.0430         73
  31.0616         72
  31.0801         70
  31.0987         66
  31.1173         62
  31.1359         65
  31.1544         66
  31.1730         83
  31.1916         60
  31.2102         73
  31.2287         91
  31.2473         62
  31.2659         66
  31.2845         69
  31.3030         73
  31.3216         79
  31.3402         68
  31.3588         80
  31.3774         71
  31.3959         66
  31.4145         59
  31.4331         60
  31.4517         73
  31.4702         78
  31.4888         70
  31.5074         85
  31.5260         76
  31.5445         70
  31.5631         63
  31.5817         65
  31.6003         74
  31.6188         70
  31.6374         80
  31.6560         67
  31.6746         79
  31.6931         66
  31.7117         76
  31.7303         71
  31.7489         65
  31.7674         60
  31.7860         70
  31.8046         62
  31.8232         58
  31.8417         95
  31.8603         75
  31.8789         64
  31.8975         69
  31.9160         79
  31.9346         61
  31.9532         69
  31.9718         79
  31.9903         68
  32.0089         70
  32.0275         75
  32.0461         69
  32.0646         74
  32.0832         77
  32.1018         64
  32.1204         64
  32.1390         64
  32.1575         60
  32.1761         62
  32.1947         55
  32.2133         69
  32.2318         59
  32.2504         52
  32.2690         65
  32.2876         62
  32.3061         63
  32.3247         59
  32.3433         67
  32.3619         68
  32.3804         76
  32.3990         72
  32.4176         83
  32.4362         85
  32.4547         88
  32.4733         86
  32.4919         80
  32.5105         75
  32.5290         70
  32.5476         74
  32.5662         61
  32.5848         85
  32.6033         58
  32.6219         60
  32.6405         65
  32.6591         65
  32.6776         71
  32.6962         55
  32.7148         61
  32.7334         83
  32.7519         62
  32.7705         59
  32.7891         44
  32.8077         51
  32.8262         68
  32.8448         57
  32.8634         60
  32.8820         75
  32.9006         69
  32.9191         64
  32.9377         78
  32.9563         63
  32.9749         58
  32.9934         73
  33.0120         66
  33.0306         58
  33.0492         46
  33.0677         57
  33.0863         50
  33.1049         53
  33.1235         56
  33.1420         60
  33.1606         57
  33.1792         71
  33.1978         55
  33.2163         56
  33.2349         57
  33.2535         44
  33.2721         57
  33.2906         59
  33.3092         60
  33.3278         51
  33.3464         57
  33.3649         52
  33.3835         57
  33.4021         60
  33.4207         47
  33.4392         56
  33.4578         65
  33.4764         57
  33.4950         65
  33.5135         49
  33.5321         58
  33.5507         55
  33.5693         48
  33.5878         60
  33.6064         69
  33.6250         57
  33.6436         47
  33.6622         66
  33.6807         61
  33.6993         57
  33.7179         64
  33.7365         57
  33.7550         62
  33.7736         62
  33.7922         60
  33.8108         64
  33.8293         55
  33.8479         61
  33.8665         61
  33.8851         48
  33.9036         56
  33.9222         59
  33.9408         56
  33.9594         56
  33.9779         57
  33.9965         53
  34.0151         50
  34.0337         58
  34.0522         58
  34.0708         47
  34.0894         63
  34.1080         58
  34.1265         69
  34.1451         66
  34.1637         72
  34.1823         47
  34.2008         58
  34.2194         57
  34.2380         50
  34.2566         61
  34.2751         62
  34.2937         45
  34.3123         56
  34.3309         58
  34.3494         45
  34.3680         58
  34.3866         54
  34.4052         56
  34.4238         61
  34.4423         53
  34.4609         49
  34.4795         58
  34.4981         56
  34.5166         50
  34.5352         52
  34.5538         51
  34.5724         60
  34.5909         63
  34.6095         54
  34.6281         66
  34.6467         69
  34.6652         63
  34.6838         62
  34.7024         59
  34.7210         73
  34.7395         63
  34.7581         76
  34.7767         75
  34.7953         71
  34.8138         72
  34.8324         76
  34.8510         56
  34.8696         63
  34.8881         59
  34.9067         60
  34.9253         50
  34.9439         59
  34.9624         62
  34.9810         56
  34.9996         42
  35.0182         57
  35.0367         51
  35.0553         46
  35.0739         58
  35.0925         48
  35.1110         63
  35.1296         56
  35.1482         50
  35.1668         40
  35.1854         57
  35.2039         56
  35.2225         58
  35.2411         60
  35.2597         61
  35.2782         47
  35.2968         50
  35.3154         49
  35.3340         56
  35.3525         57
  35.3711         60
  35.3897         53
  35.4083         57
  35.4268         57
  35.4454         36
  35.4640         34
  35.4826         52
  35.5011         45
  35.5197         49
  35.5383         37
  35.5569         53
  35.5754         56
  35.5940         58
  35.6126         61
  35.6312         51
  35.6497         50
  35.6683         60
  35.6869         45
  35.7055         52
  35.7240         50
  35.7426         56
  35.7612         66
  35.7798         65
  35.7983         48
  35.8169         53
  35.8355         51
  35.8541         45
  35.8726         57
  35.8912         53
  35.9098         33
  35.9284         44
  35.9469         41
  35.9655         47
  35.9841         52
  36.0027         51
  36.0213         40
  36.0398         48
  36.0584         45
  36.0770         46
  36.0956         50
  36.1141         43
  36.1327         53
  36.1513         47
  36.1699         43
  36.1884         35
  36.2070         53
  36.2256         52
  36.2442         51
  36.2627         46
  36.2813         40
  36.2999         35
  36.3185         38
  36.3370         48
  36.3556         46
  36.3742         51
  36.3928         32
  36.4113         58
  36.4299         45
  36.4485         45
  36.4671         52
  36.4856         42
  36.5042         45
  36.5228         35
  36.5414         39
  36.5599         55
  36.5785         63
  36.5971         47
  36.6157         50
  36.6342         52
  36.6528         56
  36.6714         55
  36.6900         37
  36.7085         56
  36.7271         50
  36.7457         41
  36.7643         42
  36.7829         55
  36.8014         49
  36.8200         54
  36.8386         48
  36.8572         60
  36.8757         32
  36.8943         50
  36.9129         36
  36.9315         47
  36.9500         53
  36.9686         49
  36.9872         45
  37.0058         55
  37.0243         38
  37.0429         48
  37.0615         47
  37.0801         43
  37.0986         47
  37.1172         52
  37.1358         47
  37.1544         49
  37.1729         43
  37.1915         51
  37.2101         45
  37.2287         59
  37.2472         47
  37.2658         33
  37.2844         57
  37.3030         30
  37.3215         53
  37.3401         55
  37.3587         51
  37.3773         39
  37.3958         54
  37.4144         75
  37.4330         63
  37.4516         82
  37.4701         64
  37.4887         55
  37.5073         59
  37.5259         71
  37.5445         62
  37.5630         48
  37.5816         52
  37.6002         55
  37.6188         56
  37.6373         34
  37.6559         48
  37.6745         44
  37.6931         52
  37.7116         47
  37.7302         39
  37.7488         49
  37.7674         45
  37.7859         51
  37.8045         54
  37.8231         47
  37.8417         51
  37.8602         45
  37.8788         47
  37.8974         45
  37.9160         46
  37.9345         46
  37.9531         35
  37.9717         40
  37.9903         45
  38.0088         48
  38.0274         34
  38.0460         38
  38.0646         42
  38.0831         43
  38.1017         43
  38.1203         41
  38.1389         46
  38.1574         32
  38.1760         44
  38.1946         45
  38.2132         40
  38.2317         44
  38.2503         30
  38.2689         31
  38.2875         41
  38.3061         42
  38.3246         49
  38.3432         38
  38.3618         48
  38.3804         34
  38.3989         46
  38.4175         46
  38.4361         47
  38.4547         40
  38.4732         46
  38.4918         35
  38.5104         51
  38.5290         38
  38.5475         45
  38.5661         37
  38.5847         45
  38.6033         48
  38.6218         50
  38.6404         47
  38.6590         38
  38.6776         55
  38.6961         37
  38.7147         39
  38.7333         36
  38.7519         48
  38.7704         41
  38.7890         35
  38.8076         40
  38.8262         40
  38.8447         40
  38.8633         50
  38.8819         49
  38.9005         42
  38.9190         46
  38.9376         33
  38.9562         38
  38.9748         36
  38.9933         46
  39.0119         23
  39.0305         40
  39.0491         34
  39.0677         45
  39.0862         36
  39.1048         55
  39.1234         48
  39.1420         39
  39.1605         31
  39.1791         35
  39.1977         34
  39.2163         41
  39.2348         43
  39.2534         40
  39.2720         58
  39.2906         34
  39.3091         29
  39.3277         46
  39.3463         32
  39.3649         30
  39.3834         40
  39.4020         33
  39.4206         38
  39.4392         46
  39.4577         40
  39.4763         34
  39.4949         40
  39.5135         32
  39.5320         31
  39.5506         35
  39.5692         44
  39.5878         38
  39.6063         41
  39.6249         28
  39.6435         38
  39.6621         50
  39.6806         38
  39.6992         48
  39.7178         31
  39.7364         46
  39.7549         44
  39.7735         32
  39.7921         42
  39.8107         24
  39.8293         41
  39.8478         25
  39.8664         44
  39.8850         55
  39.9036         53
  39.9221         49
  39.9407         46
  39.9593         35
  39.9779         31
  39.9964         39
  40.0150         35
  40.0336         34
  40.0522         49
  40.0707         44
  40.0893         43
  40.1079         38
  40.1265         39
  40.1450         47
  40.1636         45
  40.1822         40
  40.2008         35
  40.2193         41
  40.2379         33
  40.2565         37
  40.2751         32
  40.2936         31
  40.3122         34
  40.3308         42
  40.3494         41
  40.3679         37
  40.3865         53
  40.4051         33
  40.4237         52
  40.4422         29
  40.4608         36
  40.4794         35
  40.4980         44
  40.5165         34
  40.5351         39
  40.5537         43
  40.5723         29
  40.5908         32
  40.6094         47
  40.6280         46
  40.6466         43
  40.6652         44
  40.6837         37
  40.7023         46
  40.7209         40
  40.7395         39
  40.7580         26
  40.7766         35
  40.7952         36
  40.8138         45
  40.8323         37
  40.8509         42
  40.8695         47
  40.8881         39
  40.9066         41
  40.9252         53
  40.9438         53
  40.9624         29
  40.9809         55
  40.9995         45
  41.0181         37
  41.0367         60
  41.0552         36
  41.0738         33
  41.0924         31
  41.1110         47
  41.1295         38
  41.1481         28
  41.1667         40
  41.1853         31
  41.2038         36
  41.2224         45
  41.2410         33
  41.2596         38
  41.2781         51
  41.2967         36
  41.3153         39
  41.3339         44
  41.3524         39
  41.3710         29
  41.3896         32
  41.4082         35
  41.4268         35
  41.4453         41
  41.4639         45
  41.4825         27
  41.5011         44
  41.5196         27
  41.5382         40
  41.5568         42
  41.5754         56
  41.5939         39
  41.6125         42
  41.6311         34
  41.6497         45
  41.6682         35
  41.6868         46
  41.7054         34
  41.7240         44
  41.7425         36
  41.7611         36
  41.7797         48
  41.7983         42
  41.8168         43
  41.8354         37
  41.8540         43
  41.8726         39
  41.8911         37
  41.9097         33
  41.9283         39
  41.9469         31
  41.9654         38
  41.9840         29
  42.0026         46
  42.0212         37
  42.0397         30
  42.0583         38
  42.0769         32
  42.0955         32
  42.1140         39
  42.1326         38
  42.1512         35
  42.1698         45
  42.1884         49
  42.2069         41
  42.2255         33
  42.2441         27
  42.2627         37
  42.2812         39
  42.2998         42
  42.3184         45
  42.3370         35
  42.3555         38
  42.3741         48
  42.3927         30
  42.4113         40
  42.4298         38
  42.4484         31
  42.4670         44
  42.4856         36
  42.5041         25
  42.5227         38
  42.5413         32
  42.5599         42
  42.5784         42
  42.5970         39
  42.6156         32
  42.6342         33
  42.6527         45
  42.6713         24
  42.6899         30
  42.7085         39
  42.7270         40
  42.7456         27
  42.7642         39
  42.7828         33
  42.8013         43
  42.8199         35
  42.8385         39
  42.8571         41
  42.8756         24
  42.8942         37
  42.9128         36
  42.9314         37
  42.9500         36
  42.9685         31
  42.9871         28
  43.0057         41
  43.0243         40
  43.0428         30
  43.0614         43
  43.0800         39
  43.0986         44
  43.1171         43
  43.1357         36
  43.1543         34
  43.1729         33
  43.1914         39
  43.2100         43
  43.2286         43
  43.2472         46
  43.2657         50
  43.2843         41
  43.3029         45
  43.3215         35
  43.3400         46
  43.3586         52
  43.3772         45
  43.3958         36
  43.4143         35
  43.4329         47
  43.4515         47
  43.4701         45
  43.4886         58
  43.5072         85
  43.5258         76
  43.5444         43
  43.5629         53
  43.5815         39
  43.6001         31
  43.6187         50
  43.6372         53
  43.6558         43
  43.6744         38
  43.6930         37
  43.7116         28
  43.7301         27
  43.7487         34
  43.7673         38
  43.7859         42
  43.8044         32
  43.8230         54
  43.8416         36
  43.8602         30
  43.8787         40
  43.8973         34
  43.9159         32
  43.9345         38
  43.9530         43
  43.9716         32
  43.9902         40
  44.0088         33
  44.0273         29
  44.0459         35
  44.0645         24
  44.0831         42
  44.1016         42
  44.1202         40
  44.1388         45
  44.1574         43
  44.1759         44
  44.1945         29
  44.2131         44
  44.2317         33
  44.2502         45
  44.2688         34
  44.2874         36
  44.3060         42
  44.3245         29
  44.3431         34
  44.3617         37
  44.3803         24
  44.3988         42
  44.4174         54
  44.4360         44
  44.4546         44
  44.4732         40
  44.4917         30
  44.5103         37
  44.5289         34
  44.5475         32
  44.5660         34
  44.5846         29
  44.6032         39
  44.6218         35
  44.6403         48
  44.6589         38
  44.6775         42
  44.6961         39
  44.7146         48
  44.7332         31
  44.7518         35
  44.7704         44
  44.7889         42
  44.8075         32
  44.8261         48
  44.8447         41
  44.8632         40
  44.8818         35
  44.9004         37
  44.9190         38
  44.9375         35
  44.9561         27
  44.9747         34
  44.9933         39
  45.0118         36
  45.0304         39
  45.0490         30
  45.0676         38
  45.0861         37
  45.1047         31
  45.1233         39
  45.1419         29
  45.1604         33
  45.1790         31
  45.1976         28
  45.2162         34
  45.2347         29
  45.2533         34
  45.2719         29
  45.2905         25
  45.3091         39
  45.3276         36
  45.3462         25
  45.3648         44
  45.3834         41
  45.4019         29
  45.4205         34
  45.4391         34
  45.4577         30
  45.4762         31
  45.4948         27
  45.5134         31
  45.5320         29
  45.5505         38
  45.5691         39
  45.5877         33
  45.6063         34
  45.6248         27
  45.6434         50
  45.6620         40
  45.6806         31
  45.6991         35
  45.7177         36
  45.7363         34
  45.7549         38
  45.7734         32
  45.7920         33
  45.8106         33
  45.8292         29
  45.8477         32
  45.8663         36
  45.8849         31
  45.9035         29
  45.9220         26
  45.9406         31
  45.9592         32
  45.9778         29
  45.9963         31
  46.0149         40
  46.0335         22
  46.0521         28
  46.0707         36
  46.0892         40
  46.1078         34
  46.1264         33
  46.1450         32
  46.1635         44
  46.1821         30
  46.2007         29
  46.2193         30
  46.2378         39
  46.2564         30
  46.2750         36
  46.2936         31
  46.3121         33
  46.3307         35
  46.3493         38
  46.3679         40
  46.3864         27
  46.4050         41
  46.4236         28
  46.4422         29
  46.4607         33
  46.4793         24
  46.4979         35
  46.5165         37
  46.5350         36
  46.5536         33
  46.5722         34
  46.5908         35
  46.6093         30
  46.6279         30
  46.6465         30
  46.6651         22
  46.6836         41
  46.7022         27
  46.7208         32
  46.7394         24
  46.7579         38
  46.7765         38
  46.7951         28
  46.8137         28
  46.8323         33
  46.8508         39
  46.8694         29
  46.8880         36
  46.9066         30
  46.9251         36
  46.9437         36
  46.9623         30
  46.9809         39
  46.9994         42
  47.0180         37
  47.0366         29
  47.0552         34
  47.0737         29
  47.0923         27
  47.1109         42
  47.1295         28
  47.1480         31
  47.1666         27
  47.1852         37
  47.2038         28
  47.2223         34
  47.2409         41
  47.2595         40
  47.2781         23
  47.2966         38
  47.3152         28
  47.3338         33
  47.3524         30
  47.3709         30
  47.3895         32
  47.4081         27
  47.4267         26
  47.4452         31
  47.4638         40
  47.4824         35
  47.5010         41
  47.5195         28
  47.5381         29
  47.5567         31
  47.5753         23
  47.5939         22
  47.6124         35
  47.6310         38
  47.6496         28
  47.6682         31
  47.6867         26
  47.7053         28
  47.7239         27
  47.7425         25
  47.7610         26
  47.7796         34
  47.7982         30
  47.8168         26
  47.8353         25
  47.8539         29
  47.8725         37
  47.8911         32
  47.9096         29
  47.9282         29
  47.9468         31
  47.9654         36
  47.9839         30
  48.0025         31
  48.0211         39
  48.0397         39
  48.0582         24
  48.0768         28
  48.0954         36
  48.1140         37
  48.1325         36
  48.1511         38
  48.1697         32
  48.1883         28
  48.2068         38
  48.2254         26
  48.2440         29
  48.2626         32
  48.2811         24
  48.2997         25
  48.3183         29
  48.3369         17
  48.3555         34
  48.3740         35
  48.3926         47
  48.4112         27
  48.4298         32
  48.4483         28
  48.4669         20
  48.4855         26
  48.5041         31
  48.5226         37
  48.5412         32
  48.5598         25
  48.5784         34
  48.5969         27
  48.6155         35
  48.6341         26
  48.6527         29
  48.6712         38
  48.6898         31
  48.7084         30
  48.7270         32
  48.7455         32
  48.7641         38
  48.7827         34
  48.8013         41
  48.8198         30
  48.8384         34
  48.8570         32
  48.8756         47
  48.8941         38
  48.9127         37
  48.9313         36
  48.9499         57
  48.9684         71
  48.9870         59
  49.0056         34
  49.0242         35
  49.0427         35
  49.0613         49
  49.0799         48
  49.0985         44
  49.1171         41
  49.1356         32
  49.1542         34
  49.1728         34
  49.1914         25
  49.2099         28
  49.2285         39
  49.2471         33
  49.2657         40
  49.2842         29
  49.3028         19
  49.3214         24
  49.3400         23
  49.3585         30
  49.3771         31
  49.3957         27
  49.4143         38
  49.4328         35
  49.4514         32
  49.4700         36
  49.4886         23
  49.5071         19
  49.5257         27
  49.5443         35
  49.5629         25
  49.5814         28
  49.6000         39
  49.6186         33
  49.6372         38
  49.6557         33
  49.6743         39
  49.6929         31
  49.7115         32
  49.7300         28
  49.7486         26
  49.7672         35
  49.7858         34
  49.8043         39
  49.8229         21
  49.8415         29
  49.8601         41
  49.8786         34
  49.8972         32
  49.9158         30
  49.9344         29
  49.9530         34
  49.9715         36
  49.9901         28
  50.0087         18
  50.0273         37
  50.0458         36
  50.0644         32
  50.0830         36
  50.1016         24
  50.1201         31
  50.1387         27
  50.1573         30
  50.1759         32
  50.1944         30
  50.2130         27
  50.2316         37
  50.2502         25
  50.2687         28
  50.2873         30
  50.3059         25
  50.3245         24
  50.3430         25
  50.3616         35
  50.3802         43
  50.3988         34
  50.4173         26
  50.4359         37
  50.4545         31
  50.4731         28
  50.4916         32
  50.5102         32
  50.5288         38
  50.5474         29
  50.5659         29
  50.5845         24
  50.6031         28
  50.6217         27
  50.6402         19
  50.6588         31
  50.6774         33
  50.6960         28
  50.7146         35
  50.7331         35
  50.7517         32
  50.7703         40
  50.7889         27
  50.8074         44
  50.8260         26
  50.8446         27
  50.8632         27
  50.8817         34
  50.9003         29
  50.9189         25
  50.9375         20
  50.9560         39
  50.9746         22
  50.9932         29
  51.0118         26
  51.0303         28
  51.0489         34
  51.0675         34
  51.0861         27
  51.1046         29
  51.1232         27
  51.1418         27
  51.1604         27
  51.1789         30
  51.1975         36
  51.2161         31
  51.2347         19
  51.2532         27
  51.2718         33
  51.2904         33
  51.3090         25
  51.3275         27
  51.3461         27
  51.3647         43
  51.3833         29
  51.4018         42
  51.4204         38
  51.4390         32
  51.4576         32
  51.4762         36
  51.4947         34
  51.5133         31
  51.5319         28
  51.5505         22
  51.5690         37
  51.5876         28
  51.6062         37
  51.6248         30
  51.6433         37
  51.6619         44
  51.6805         25
  51.6991         30
  51.7176         27
  51.7362         25
  51.7548         39
  51.7734         33
  51.7919         33
  51.8105         35
  51.8291         31
  51.8477         33
  51.8662         33
  51.8848         27
  51.9034         32
  51.9220         35
  51.9405         29
  51.9591         37
  51.9777         31
  51.9963         26
  52.0148         28
  52.0334         29
  52.0520         23
  52.0706         29
  52.0891         38
  52.1077         31
  52.1263         31
  52.1449         30
  52.1634         21
  52.1820         24
  52.2006         23
  52.2192         31
  52.2378         30
  52.2563         35
  52.2749         20
  52.2935         28
  52.3121         30
  52.3306         28
  52.3492         30
  52.3678         20
  52.3864         36
  52.4049         29
  52.4235         28
  52.4421         31
  52.4607         31
  52.4792         29
  52.4978         19
  52.5164         22
  52.5350         27
  52.5535         25
  52.5721         28
  52.5907         36
  52.6093         23
  52.6278         28
  52.6464         27
  52.6650         37
  52.6836         26
  52.7021         31
  52.7207         37
  52.7393         29
  52.7579         23
  52.7764         31
  52.7950         27
  52.8136         27
  52.8322         30
  52.8507         34
  52.8693         31
  52.8879         35
  52.9065         28
  52.9250         25
  52.9436         23
  52.9622         26
  52.9808         42
  52.9994         30
  53.0179         34
  53.0365         31
  53.0551         34
  53.0737         28
  53.0922         26
  53.1108         37
  53.1294         26
  53.1480         30
  53.1665         31
  53.1851         31
  53.2037         30
  53.2223         31
  53.2408         37
  53.2594         27
  53.2780         28
  53.2966         22
  53.3151         34
  53.3337         31
  53.3523         21
  53.3709         22
  53.3894         33
  53.4080         27
  53.4266         24
  53.4452         23
  53.4637         25
  53.4823         21
  53.5009         28
  53.5195         26
  53.5380         33
  53.5566         21
  53.5752         24
  53.5938         34
  53.6123         31
  53.6309         42
  53.6495         22
  53.6681         31
  53.6866         33
  53.7052         33
  53.7238         26
  53.7424         24
  53.7610         24
  53.7795         26
  53.7981         26
  53.8167         23
  53.8353         21
  53.8538         30
  53.8724         33
  53.8910         27
  53.9096         38
  53.9281         37
  53.9467         38
  53.9653         37
  53.9839         42
  54.0024         37
  54.0210         54
  54.0396         29
  54.0582         29
  54.0767         41
  54.0953         48
  54.1139         44
  54.1325         49
  54.1510         36
  54.1696         37
  54.1882         25
  54.2068         33
  54.2253         34
  54.2439         38
  54.2625         41
  54.2811         26
  54.2996         31
  54.3182         28
  54.3368         29
  54.3554         24
  54.3739         32
  54.3925         32
  54.4111         27
  54.4297         27
  54.4482         26
  54.4668         27
  54.4854         32
  54.5040         26
  54.5225         22
  54.5411         33
  54.5597         25
  54.5783         23
  54.5969         33
  54.6154         25
  54.6340         27
  54.6526         23
  54.6712         20
  54.6897         23
  54.7083         27
  54.7269         28
  54.7455         37
  54.7640         23
  54.7826         28
  54.8012         42
  54.8198         24
  54.8383         35
  54.8569         37
  54.8755         27
  54.8941         33
  54.9126         33
  54.9312         23
  54.9498         24
  54.9684         23
  54.9869         27
  55.0055         25
  55.0241         25
  55.0427         28
  55.0612         24
  55.0798         23
  55.0984         26
  55.1170         28
  55.1355         24
  55.1541         20
  55.1727         26
  55.1913         30
  55.2098         26
  55.2284         35
  55.2470         26
  55.2656         29
  55.2841         28
  55.3027         36
  55.3213         24
  55.3399         36
  55.3585         26
  55.3770         22
  55.3956         18
  55.4142         28
  55.4328         27
  55.4513         26
  55.4699         35
  55.4885         31
  55.5071         27
  55.5256         36
  55.5442         23
  55.5628         25
  55.5814         38
  55.5999         33
  55.6185         29
  55.6371         24
  55.6557         27
  55.6742         28
  55.6928         28
  55.7114         30
  55.7300         34
  55.7485         22
  55.7671         29
  55.7857         32
  55.8043         31
  55.8228         26
  55.8414         24
  55.8600         35
  55.8786         29
  55.8971         24
  55.9157         32
  55.9343         29
  55.9529         36
  55.9714         24
  55.9900         32
  56.0086         24
  56.0272         35
  56.0457         22
  56.0643         46
  56.0829         27
  56.1015         32
  56.1201         29
  56.1386         28
  56.1572         31
  56.1758         27
  56.1944         19
  56.2129         38
  56.2315         29
  56.2501         28
  56.2687         37
  56.2872         37
  56.3058         25
  56.3244         32
  56.3430         45
  56.3615         27
  56.3801         24
  56.3987         33
  56.4173         35
  56.4358         27
  56.4544         26
  56.4730         37
  56.4916         32
  56.5101         31
  56.5287         27
  56.5473         28
  56.5659         27
  56.5844         32
  56.6030         28
  56.6216         31
  56.6402         29
  56.6587         26
  56.6773         33
  56.6959         29
  56.7145         27
  56.7330         27
  56.7516         31
  56.7702         32
  56.7888         34
  56.8073         24
  56.8259         28
  56.8445         22
  56.8631         27
  56.8817         26
  56.9002         24
  56.9188         30
  56.9374         30
  56.9560         32
  56.9745         28
  56.9931         30
  57.0117         30
  57.0303         24
  57.0488         25
  57.0674         25
  57.0860         30
  57.1046         29
  57.1231         26
  57.1417         32
  57.1603         32
  57.1789         26
  57.1974         25
  57.2160         25
  57.2346         31
  57.2532         29
  57.2717         23
  57.2903         30
  57.3089         22
  57.3275         30
  57.3460         29
  57.3646         28
  57.3832         34
  57.4018         17
  57.4203         29
  57.4389         26
  57.4575         32
  57.4761         25
  57.4946         20
  57.5132         22
  57.5318         25
  57.5504         32
  57.5689         21
  57.5875         22
  57.6061         22
  57.6247         22
  57.6433         26
  57.6618         29
  57.6804         26
  57.6990         27
  57.7176         33
  57.7361         28
  57.7547         24
  57.7733         31
  57.7919         30
  57.8104         24
  57.8290         35
  57.8476         30
  57.8662         28
  57.8847         30
  57.9033         32
  57.9219         26
  57.9405         25
  57.9590         23
  57.9776         37
  57.9962         31
  58.0148         36
  58.0333         29
  58.0519         32
  58.0705         28
  58.0891         22
  58.1076         35
  58.1262         26
  58.1448         27
  58.1634         28
  58.1819         19
  58.2005         27
  58.2191         27
  58.2377         19
  58.2562         21
  58.2748         29
  58.2934         23
  58.3120         32
  58.3305         26
  58.3491         21
  58.3677         20
  58.3863         27
  58.4049         29
  58.4234         25
  58.4420         28
  58.4606         24
  58.4792         33
  58.4977         34
  58.5163         26
  58.5349         22
  58.5535         28
  58.5720         20
  58.5906         29
  58.6092         22
  58.6278         36
  58.6463         28
  58.6649         23
  58.6835         31
  58.7021         22
  58.7206         36
  58.7392         22
  58.7578         27
  58.7764         27
  58.7949         38
  58.8135         22
  58.8321         17
  58.8507         34
  58.8692         33
  58.8878         31
  58.9064         25
  58.9250         19
  58.9435         30
  58.9621         21
  58.9807         32
  58.9993         24
  59.0178         28
  59.0364         28
  59.0550         25
  59.0736         28
  59.0921         17
  59.1107         19
  59.1293         32
  59.1479         27
  59.1664         35
  59.1850         20
  59.2036         30
  59.2222         26
  59.2408         31
  59.2593         19
  59.2779         20
  59.2965         22
  59.3151         20
  59.3336         25
  59.3522         19
  59.3708         29
  59.3894         27
  59.4079         25
  59.4265         20
  59.4451         27
  59.4637         31
  59.4822         18
  59.5008         26
  59.5194         27
  59.5380         28
  59.5565         27
  59.5751         24
  59.5937         32
  59.6123         28
  59.6308         23
  59.6494         28
  59.6680         22
  59.6866         32
  59.7051         23
  59.7237         22
  59.7423         20
  59.7609         26
  59.7794         15
  59.7980         28
  59.8166         24
  59.8352         27
  59.8537         26
  59.8723         27
  59.8909         28
  59.9095         26
  59.9280         23
  59.9466         29
  59.9652         24
  59.9838         28
  60.0024         22
