; (content of file Y:\Sam\Apurva-07-20-2022\puck4\ML_20220718_10_SJD_0_LaB6-2min.raw)
_FILEVERSION = 3
_SAMPLE = ML_20220718_10_SJD_0_LaB6-2min
_+SAMPLE = 
_SITE = USA
_USER = Administrator
_GONIOMETER_CODE = 20
; Goniometer : D8 theta/2theta, stage : Unknown
_ATTACHMENTS_CODE = 0
_GONIOMETER_RADIUS = 200.5
_FIXED_DIVSLIT = 0.6
_FIXED_SAMPLESLIT = 0
_SOLLER_SLITS = 2
_FIXED_DETSLIT = 9.55
_MONOCHROMATOR = 0
; Incident beam monochromator : None
_SOLLER_SLITS_2 = N
_THIN_FILM = N
_BETA_FILTER = Y
_FIXED_ANTISLIT = 5.89
_ANALYZER_CODE = 0
; Received beam analyzer : None
_DATEMEASURED = "26-Jul-2022 10:01:26"
_WL_UNIT = A
_WL1 = 1.5406
_WL2 = 1.54439
_WL3 = 1.39222
_WLRATIO = 0.5
_ANODE = Cu
_V4_INF_CREATOR = XRDWizard
_V4_INF_CREATOR_VERSION = V2.9.0.22
_V4_INF_WIZARD_VERSION = V2.9.0.22
_V4_INF_WIZARD_ADDINS = V2.9.0.22
_V4_INF_WIZARD_DOCTYPE = XRD
_V4_INF_OSUSER = McQueenLab
_V4_INF_USER = Administrator
_V4_INF_SITE = USA
_V4_INF_SAMPLEID = ML_20220718_10_SJD_0_LaB6-2min

; Data for range 1
_DRIVE = COUPLED
_STEPTIME = 5.64
_STEPSIZE = 0.0185756
_STEPMODE = C
_START = 5
_THETA = 2.5
_2THETA = 5
_KHI = 0
_PHI = 0
_X = 0
_Y = 0
_Z = 0
_DETECTOR = 5
; Detector type : Unknown
_DETECTORSLIT = unkn
_AUX1 = 0
_AUX2 = 0
_AUX3 = 0
_TIMESTARTED = 15
_TEMP_RATE = -1
_TEMP_DELAY = -1
_KV = 40
_MA = 40
_RANGE_WL = 1.5406
_3DPLANE = 0
_V4_ADDITIONALDETECTOR = 257
_V4_PSD2THETA = 3.4232
_V4_PSDCHANNEL1 = 0
_V4_PSDAPERTURE = 12.68
_V4_PSDTYPE = 5
_V4_PSDFIXED = 0
_V4_COUNTERS_MASK = 4096
_V4_DRIVES_MASK = 0
_V4_ENCODERS_MASK = 0
_2THETACOUNTS = 1
; 2THETA  PSD
   5.0000        123
   5.0186        125
   5.0372        123
   5.0557        105
   5.0743        101
   5.0929        111
   5.1115        140
   5.1300        131
   5.1486        127
   5.1672        111
   5.1858        107
   5.2043        138
   5.2229        135
   5.2415        133
   5.2601        110
   5.2786        115
   5.2972        126
   5.3158        118
   5.3344         95
   5.3529        124
   5.3715        108
   5.3901        123
   5.4087        133
   5.4272        146
   5.4458        117
   5.4644        136
   5.4830        110
   5.5015        133
   5.5201        117
   5.5387        121
   5.5573        134
   5.5758        107
   5.5944        103
   5.6130        113
   5.6316        115
   5.6501        113
   5.6687        123
   5.6873        113
   5.7059        104
   5.7244        131
   5.7430        103
   5.7616        132
   5.7802         90
   5.7988        106
   5.8173        117
   5.8359        125
   5.8545        103
   5.8731        112
   5.8916        103
   5.9102        113
   5.9288         97
   5.9474        112
   5.9659        109
   5.9845         91
   6.0031         96
   6.0217         87
   6.0402        107
   6.0588         86
   6.0774         88
   6.0960         94
   6.1145        102
   6.1331         82
   6.1517        114
   6.1703         86
   6.1888         94
   6.2074         93
   6.2260        102
   6.2446         98
   6.2631         93
   6.2817         92
   6.3003         83
   6.3189        101
   6.3374         94
   6.3560         84
   6.3746         80
   6.3932        106
   6.4117         96
   6.4303         98
   6.4489         82
   6.4675         92
   6.4860         81
   6.5046         89
   6.5232         67
   6.5418         91
   6.5604         74
   6.5789         98
   6.5975         77
   6.6161         93
   6.6347         86
   6.6532         90
   6.6718         78
   6.6904         85
   6.7090         74
   6.7275         91
   6.7461         90
   6.7647         89
   6.7833         85
   6.8018         70
   6.8204         59
   6.8390         84
   6.8576         86
   6.8761         83
   6.8947         97
   6.9133         98
   6.9319         80
   6.9504         82
   6.9690         79
   6.9876         85
   7.0062         79
   7.0247         76
   7.0433         80
   7.0619         83
   7.0805         93
   7.0990         86
   7.1176         82
   7.1362         80
   7.1548         92
   7.1733         73
   7.1919         78
   7.2105         88
   7.2291         95
   7.2476         89
   7.2662         96
   7.2848         95
   7.3034         87
   7.3220         91
   7.3405         80
   7.3591         80
   7.3777         74
   7.3963         82
   7.4148         78
   7.4334         91
   7.4520         76
   7.4706         66
   7.4891         96
   7.5077        103
   7.5263         81
   7.5449         93
   7.5634         78
   7.5820         85
   7.6006         75
   7.6192         90
   7.6377         75
   7.6563         69
   7.6749         97
   7.6935         95
   7.7120         78
   7.7306         85
   7.7492         93
   7.7678         86
   7.7863        105
   7.8049        100
   7.8235        111
   7.8421         91
   7.8606         93
   7.8792         84
   7.8978         92
   7.9164         95
   7.9349         94
   7.9535         97
   7.9721         89
   7.9907        114
   8.0092         83
   8.0278         82
   8.0464        116
   8.0650         95
   8.0835         99
   8.1021         87
   8.1207         87
   8.1393         95
   8.1579        100
   8.1764         95
   8.1950        100
   8.2136        111
   8.2322         94
   8.2507         95
   8.2693         98
   8.2879         88
   8.3065        100
   8.3250        115
   8.3436         91
   8.3622         92
   8.3808        101
   8.3993         84
   8.4179        108
   8.4365        103
   8.4551         91
   8.4736        103
   8.4922         95
   8.5108         87
   8.5294        110
   8.5479         84
   8.5665        100
   8.5851         76
   8.6037        105
   8.6222        115
   8.6408        123
   8.6594         90
   8.6780        101
   8.6965        101
   8.7151        109
   8.7337         95
   8.7523        101
   8.7708        105
   8.7894        114
   8.8080        105
   8.8266        113
   8.8451         99
   8.8637        108
   8.8823         91
   8.9009        114
   8.9195         97
   8.9380         89
   8.9566        110
   8.9752        109
   8.9938        116
   9.0123        100
   9.0309         95
   9.0495        116
   9.0681        116
   9.0866        103
   9.1052         98
   9.1238        102
   9.1424        114
   9.1609        105
   9.1795         99
   9.1981        107
   9.2167        112
   9.2352        108
   9.2538        118
   9.2724         96
   9.2910         88
   9.3095        101
   9.3281         98
   9.3467        123
   9.3653        112
   9.3838        103
   9.4024        104
   9.4210        103
   9.4396        108
   9.4581        104
   9.4767        121
   9.4953        107
   9.5139        122
   9.5324        107
   9.5510        115
   9.5696        107
   9.5882         93
   9.6067         96
   9.6253        127
   9.6439         98
   9.6625        112
   9.6811        105
   9.6996         99
   9.7182        105
   9.7368        121
   9.7554        109
   9.7739        111
   9.7925         99
   9.8111        124
   9.8297        123
   9.8482        106
   9.8668         97
   9.8854        106
   9.9040        129
   9.9225        119
   9.9411        133
   9.9597        107
   9.9783        116
   9.9968        123
  10.0154        103
  10.0340        132
  10.0526        127
  10.0711        113
  10.0897        112
  10.1083        113
  10.1269        147
  10.1454        125
  10.1640        110
  10.1826        122
  10.2012        114
  10.2197        130
  10.2383        120
  10.2569        126
  10.2755        123
  10.2940        109
  10.3126        143
  10.3312        110
  10.3498        122
  10.3683        130
  10.3869        119
  10.4055        144
  10.4241        123
  10.4427        114
  10.4612        135
  10.4798        128
  10.4984        122
  10.5170        142
  10.5355        106
  10.5541        119
  10.5727        113
  10.5913        119
  10.6098        117
  10.6284        119
  10.6470        124
  10.6656        129
  10.6841        114
  10.7027        115
  10.7213        132
  10.7399        134
  10.7584        118
  10.7770        108
  10.7956        128
  10.8142        127
  10.8327        137
  10.8513        119
  10.8699        148
  10.8885        117
  10.9070        121
  10.9256        111
  10.9442        104
  10.9628        120
  10.9813         99
  10.9999        124
  11.0185        132
  11.0371        110
  11.0556        111
  11.0742        112
  11.0928        122
  11.1114        108
  11.1299        122
  11.1485        121
  11.1671        111
  11.1857        121
  11.2043        101
  11.2228        131
  11.2414        117
  11.2600        126
  11.2786        114
  11.2971        105
  11.3157        106
  11.3343        115
  11.3529        108
  11.3714        126
  11.3900        116
  11.4086        120
  11.4272        129
  11.4457        114
  11.4643        119
  11.4829        119
  11.5015        135
  11.5200        101
  11.5386        131
  11.5572        124
  11.5758        115
  11.5943        138
  11.6129        117
  11.6315        117
  11.6501        114
  11.6686        110
  11.6872        110
  11.7058        105
  11.7244        123
  11.7429        119
  11.7615        111
  11.7801        117
  11.7987         98
  11.8172        111
  11.8358         93
  11.8544        110
  11.8730        135
  11.8915        118
  11.9101        129
  11.9287        115
  11.9473        120
  11.9659        104
  11.9844        132
  12.0030        131
  12.0216        118
  12.0402         98
  12.0587        129
  12.0773        110
  12.0959        102
  12.1145        107
  12.1330         86
  12.1516        110
  12.1702        110
  12.1888        118
  12.2073        106
  12.2259        114
  12.2445         94
  12.2631        100
  12.2816        119
  12.3002         99
  12.3188        121
  12.3374        122
  12.3559        113
  12.3745        110
  12.3931        100
  12.4117        113
  12.4302         98
  12.4488        119
  12.4674        108
  12.4860        121
  12.5045        121
  12.5231        114
  12.5417        109
  12.5603         96
  12.5788        101
  12.5974        103
  12.6160        104
  12.6346        112
  12.6531        108
  12.6717        100
  12.6903        114
  12.7089        101
  12.7274         98
  12.7460        104
  12.7646        107
  12.7832        104
  12.8018         97
  12.8203        108
  12.8389         78
  12.8575        102
  12.8761        117
  12.8946         97
  12.9132        103
  12.9318        100
  12.9504        100
  12.9689        110
  12.9875         93
  13.0061         93
  13.0247        100
  13.0432        109
  13.0618        108
  13.0804        101
  13.0990        114
  13.1175        104
  13.1361        102
  13.1547        118
  13.1733        106
  13.1918        112
  13.2104         94
  13.2290        114
  13.2476         97
  13.2661         98
  13.2847        104
  13.3033        101
  13.3219         86
  13.3404         90
  13.3590         95
  13.3776         94
  13.3962        118
  13.4147         90
  13.4333         93
  13.4519         91
  13.4705        116
  13.4890         73
  13.5076         96
  13.5262         73
  13.5448         91
  13.5634         94
  13.5819         95
  13.6005        109
  13.6191        106
  13.6377         88
  13.6562         97
  13.6748         97
  13.6934         98
  13.7120         94
  13.7305         86
  13.7491        109
  13.7677         80
  13.7863         98
  13.8048         92
  13.8234        108
  13.8420         85
  13.8606         97
  13.8791         97
  13.8977        102
  13.9163         94
  13.9349        100
  13.9534         79
  13.9720         90
  13.9906         71
  14.0092         96
  14.0277         86
  14.0463         88
  14.0649         94
  14.0835         72
  14.1020         90
  14.1206         86
  14.1392        109
  14.1578         82
  14.1763         82
  14.1949        102
  14.2135         87
  14.2321         90
  14.2506        107
  14.2692         90
  14.2878         97
  14.3064         79
  14.3250         78
  14.3435        100
  14.3621         86
  14.3807         86
  14.3993         83
  14.4178         91
  14.4364         84
  14.4550         81
  14.4736         80
  14.4921        114
  14.5107        100
  14.5293         99
  14.5479         71
  14.5664         71
  14.5850        101
  14.6036         92
  14.6222         83
  14.6407         87
  14.6593         88
  14.6779         76
  14.6965         88
  14.7150         90
  14.7336         87
  14.7522         75
  14.7708         80
  14.7893         87
  14.8079         92
  14.8265        100
  14.8451         91
  14.8636         75
  14.8822         80
  14.9008         93
  14.9194         77
  14.9379         80
  14.9565         78
  14.9751         98
  14.9937         88
  15.0122         66
  15.0308         91
  15.0494         74
  15.0680         79
  15.0866         81
  15.1051         78
  15.1237         69
  15.1423         87
  15.1609         82
  15.1794         83
  15.1980         91
  15.2166         79
  15.2352         98
  15.2537         93
  15.2723         71
  15.2909         80
  15.3095         65
  15.3280         77
  15.3466         65
  15.3652         84
  15.3838         64
  15.4023         97
  15.4209         84
  15.4395         82
  15.4581         89
  15.4766         89
  15.4952         86
  15.5138         84
  15.5324         86
  15.5509         79
  15.5695         88
  15.5881         70
  15.6067         85
  15.6252         94
  15.6438         77
  15.6624         78
  15.6810         90
  15.6995         88
  15.7181         94
  15.7367         68
  15.7553         69
  15.7738         89
  15.7924         53
  15.8110         79
  15.8296         72
  15.8482         88
  15.8667         87
  15.8853         98
  15.9039         88
  15.9225         74
  15.9410         91
  15.9596         79
  15.9782         86
  15.9968         73
  16.0153         79
  16.0339         92
  16.0525         73
  16.0711         72
  16.0896         86
  16.1082         93
  16.1268         88
  16.1454         93
  16.1639         83
  16.1825         84
  16.2011         84
  16.2197        107
  16.2382         71
  16.2568         80
  16.2754         86
  16.2940         80
  16.3125         82
  16.3311         67
  16.3497         85
  16.3683         85
  16.3868         93
  16.4054         73
  16.4240         72
  16.4426         71
  16.4611         68
  16.4797         85
  16.4983         81
  16.5169         85
  16.5354         95
  16.5540         73
  16.5726         69
  16.5912         88
  16.6097         78
  16.6283         88
  16.6469         87
  16.6655         75
  16.6841         70
  16.7026         80
  16.7212         84
  16.7398         91
  16.7584         88
  16.7769         88
  16.7955         75
  16.8141         71
  16.8327         80
  16.8512         76
  16.8698         61
  16.8884         64
  16.9070         85
  16.9255         81
  16.9441         77
  16.9627         74
  16.9813         63
  16.9998         77
  17.0184         63
  17.0370         71
  17.0556         83
  17.0741         82
  17.0927         88
  17.1113         80
  17.1299        102
  17.1484         82
  17.1670         86
  17.1856         92
  17.2042         92
  17.2227         84
  17.2413         85
  17.2599         73
  17.2785         90
  17.2970         72
  17.3156         65
  17.3342         88
  17.3528         74
  17.3713         89
  17.3899         86
  17.4085         77
  17.4271         96
  17.4457         89
  17.4642         81
  17.4828         74
  17.5014         88
  17.5200         86
  17.5385         75
  17.5571         78
  17.5757         83
  17.5943         81
  17.6128         96
  17.6314         73
  17.6500         99
  17.6686         83
  17.6871         82
  17.7057         85
  17.7243         87
  17.7429         64
  17.7614         66
  17.7800         83
  17.7986         75
  17.8172         71
  17.8357         84
  17.8543         90
  17.8729         76
  17.8915         85
  17.9100         80
  17.9286         82
  17.9472         82
  17.9658         83
  17.9843         77
  18.0029         78
  18.0215         77
  18.0401         76
  18.0586         83
  18.0772         86
  18.0958         86
  18.1144         74
  18.1329         75
  18.1515         83
  18.1701         82
  18.1887         81
  18.2073         54
  18.2258         90
  18.2444         78
  18.2630        102
  18.2816         66
  18.3001         88
  18.3187         87
  18.3373         85
  18.3559         76
  18.3744         67
  18.3930         86
  18.4116         95
  18.4302         83
  18.4487         78
  18.4673         87
  18.4859         87
  18.5045         90
  18.5230         88
  18.5416         75
  18.5602         93
  18.5788         75
  18.5973         91
  18.6159         95
  18.6345         80
  18.6531         78
  18.6716         74
  18.6902         93
  18.7088         76
  18.7274         87
  18.7459         76
  18.7645         90
  18.7831         73
  18.8017         78
  18.8202         74
  18.8388        101
  18.8574         92
  18.8760         88
  18.8945         76
  18.9131         92
  18.9317        108
  18.9503         97
  18.9689         90
  18.9874         87
  19.0060         78
  19.0246         95
  19.0432         95
  19.0617         76
  19.0803         90
  19.0989         79
  19.1175         88
  19.1360         93
  19.1546         85
  19.1732         83
  19.1918         74
  19.2103         77
  19.2289         75
  19.2475         84
  19.2661         84
  19.2846         96
  19.3032        106
  19.3218         89
  19.3404         74
  19.3589         90
  19.3775         94
  19.3961         85
  19.4147         89
  19.4332         82
  19.4518         89
  19.4704         87
  19.4890         83
  19.5075         84
  19.5261         68
  19.5447         78
  19.5633        100
  19.5818         82
  19.6004         95
  19.6190         74
  19.6376         85
  19.6561         87
  19.6747         85
  19.6933        109
  19.7119         85
  19.7305         87
  19.7490         92
  19.7676         97
  19.7862         81
  19.8048         94
  19.8233         79
  19.8419         98
  19.8605         86
  19.8791         98
  19.8976         85
  19.9162         81
  19.9348         89
  19.9534         93
  19.9719         76
  19.9905        104
  20.0091         85
  20.0277         98
  20.0462         91
  20.0648         78
  20.0834         96
  20.1020         84
  20.1205         87
  20.1391         75
  20.1577        102
  20.1763        103
  20.1948         89
  20.2134         84
  20.2320        101
  20.2506         96
  20.2691         87
  20.2877         97
  20.3063         85
  20.3249         93
  20.3434         75
  20.3620        102
  20.3806         87
  20.3992        104
  20.4177         91
  20.4363        110
  20.4549         94
  20.4735         94
  20.4921         87
  20.5106         81
  20.5292        100
  20.5478        108
  20.5664         76
  20.5849         91
  20.6035         84
  20.6221         89
  20.6407         90
  20.6592         78
  20.6778         96
  20.6964         93
  20.7150        107
  20.7335         85
  20.7521         94
  20.7707        100
  20.7893         85
  20.8078         85
  20.8264         97
  20.8450         98
  20.8636         91
  20.8821        100
  20.9007        104
  20.9193         77
  20.9379        102
  20.9564         95
  20.9750         92
  20.9936         94
  21.0122         89
  21.0307         78
  21.0493        102
  21.0679        105
  21.0865        118
  21.1050         99
  21.1236         95
  21.1422        101
  21.1608        130
  21.1793        103
  21.1979        146
  21.2165        172
  21.2351        167
  21.2537        163
  21.2722        152
  21.2908        163
  21.3094        169
  21.3280        182
  21.3465        252
  21.3651        260
  21.3837        210
  21.4023        191
  21.4208        165
  21.4394        118
  21.4580         97
  21.4766        105
  21.4951        116
  21.5137         93
  21.5323         97
  21.5509         97
  21.5694        108
  21.5880         81
  21.6066         93
  21.6252        107
  21.6437         95
  21.6623        108
  21.6809        110
  21.6995         96
  21.7180        100
  21.7366         75
  21.7552         98
  21.7738        104
  21.7923        113
  21.8109        108
  21.8295         90
  21.8481        106
  21.8666         95
  21.8852        106
  21.9038        105
  21.9224         81
  21.9409         78
  21.9595        104
  21.9781        122
  21.9967         97
  22.0152         87
  22.0338         92
  22.0524        109
  22.0710        115
  22.0896         92
  22.1081         80
  22.1267        106
  22.1453         85
  22.1639        112
  22.1824         98
  22.2010         97
  22.2196         85
  22.2382         99
  22.2567         91
  22.2753         79
  22.2939         84
  22.3125         99
  22.3310        103
  22.3496        103
  22.3682         73
  22.3868         89
  22.4053        116
  22.4239        102
  22.4425         96
  22.4611        110
  22.4796        103
  22.4982         85
  22.5168         92
  22.5354         91
  22.5539        115
  22.5725         88
  22.5911        101
  22.6097         98
  22.6282         82
  22.6468        101
  22.6654         84
  22.6840        112
  22.7025         96
  22.7211        115
  22.7397         90
  22.7583         90
  22.7768        116
  22.7954        106
  22.8140         95
  22.8326         95
  22.8512        117
  22.8697         77
  22.8883        114
  22.9069         90
  22.9255         88
  22.9440         93
  22.9626         80
  22.9812         97
  22.9998         96
  23.0183        100
  23.0369        100
  23.0555         93
  23.0741        100
  23.0926         96
  23.1112         98
  23.1298         97
  23.1484         72
  23.1669        102
  23.1855        103
  23.2041         85
  23.2227        111
  23.2412        123
  23.2598        113
  23.2784         97
  23.2970         93
  23.3155        107
  23.3341         99
  23.3527        104
  23.3713        104
  23.3898        111
  23.4084        114
  23.4270         98
  23.4456         95
  23.4641         74
  23.4827        111
  23.5013        113
  23.5199        103
  23.5384         99
  23.5570         84
  23.5756        110
  23.5942        124
  23.6128        116
  23.6313         95
  23.6499         98
  23.6685        103
  23.6871         99
  23.7056        104
  23.7242         93
  23.7428         93
  23.7614        107
  23.7799        104
  23.7985         92
  23.8171         87
  23.8357        109
  23.8542        110
  23.8728        110
  23.8914         98
  23.9100        112
  23.9285        106
  23.9471         97
  23.9657        114
  23.9843         99
  24.0028         92
  24.0214         94
  24.0400        108
  24.0586        110
  24.0771         96
  24.0957        104
  24.1143        105
  24.1329        106
  24.1514         87
  24.1700        104
  24.1886        100
  24.2072        103
  24.2257        107
  24.2443        117
  24.2629        117
  24.2815        130
  24.3000        109
  24.3186         97
  24.3372        133
  24.3558        115
  24.3744        118
  24.3929         97
  24.4115         94
  24.4301         97
  24.4487        123
  24.4672        101
  24.4858         98
  24.5044         97
  24.5230         93
  24.5415         73
  24.5601         89
  24.5787         98
  24.5973        102
  24.6158         88
  24.6344         96
  24.6530         97
  24.6716         85
  24.6901         98
  24.7087         93
  24.7273        107
  24.7459         99
  24.7644        100
  24.7830         94
  24.8016        100
  24.8202        103
  24.8387        101
  24.8573         89
  24.8759         93
  24.8945         89
  24.9130         95
  24.9316        108
  24.9502         86
  24.9688        112
  24.9873        101
  25.0059         87
  25.0245         89
  25.0431         94
  25.0616         92
  25.0802        108
  25.0988         96
  25.1174        104
  25.1360         77
  25.1545        102
  25.1731         88
  25.1917         86
  25.2103         83
  25.2288         91
  25.2474         88
  25.2660        100
  25.2846         95
  25.3031         78
  25.3217        105
  25.3403         90
  25.3589         79
  25.3774         96
  25.3960        117
  25.4146        104
  25.4332         91
  25.4517         90
  25.4703        117
  25.4889        104
  25.5075         75
  25.5260         96
  25.5446         94
  25.5632        101
  25.5818        104
  25.6003         95
  25.6189         87
  25.6375         94
  25.6561        102
  25.6746        100
  25.6932        110
  25.7118         89
  25.7304         84
  25.7489        100
  25.7675        105
  25.7861        102
  25.8047         83
  25.8232         86
  25.8418         75
  25.8604         94
  25.8790         98
  25.8976        104
  25.9161         96
  25.9347        104
  25.9533         88
  25.9719        104
  25.9904         88
  26.0090         76
  26.0276         95
  26.0462         88
  26.0647         91
  26.0833        107
  26.1019        119
  26.1205         82
  26.1390        104
  26.1576         96
  26.1762         98
  26.1948        100
  26.2133        102
  26.2319         92
  26.2505         92
  26.2691        107
  26.2876         98
  26.3062         95
  26.3248         91
  26.3434         87
  26.3619         92
  26.3805        104
  26.3991         93
  26.4177         95
  26.4362         93
  26.4548         98
  26.4734         99
  26.4920         90
  26.5105         89
  26.5291         78
  26.5477        101
  26.5663         84
  26.5848         87
  26.6034         84
  26.6220         88
  26.6406         84
  26.6591         89
  26.6777        102
  26.6963         93
  26.7149         91
  26.7335         95
  26.7520         87
  26.7706         75
  26.7892         82
  26.8078        116
  26.8263         90
  26.8449         96
  26.8635         85
  26.8821         83
  26.9006         83
  26.9192         92
  26.9378         86
  26.9564         98
  26.9749         92
  26.9935         83
  27.0121         89
  27.0307        103
  27.0492         80
  27.0678        105
  27.0864         85
  27.1050        102
  27.1235        122
  27.1421         92
  27.1607        109
  27.1793        118
  27.1978        118
  27.2164        122
  27.2350        112
  27.2536        122
  27.2721        109
  27.2907        126
  27.3093         87
  27.3279        101
  27.3464         79
  27.3650        103
  27.3836        110
  27.4022         80
  27.4207        103
  27.4393         89
  27.4579         86
  27.4765         89
  27.4951         93
  27.5136         93
  27.5322         92
  27.5508         86
  27.5694         88
  27.5879         78
  27.6065         74
  27.6251         97
  27.6437         89
  27.6622         98
  27.6808         94
  27.6994         85
  27.7180         74
  27.7365         86
  27.7551         82
  27.7737         81
  27.7923         90
  27.8108         79
  27.8294         99
  27.8480         80
  27.8666         97
  27.8851         88
  27.9037         90
  27.9223        102
  27.9409        104
  27.9594         92
  27.9780         74
  27.9966         89
  28.0152         90
  28.0337         81
  28.0523         81
  28.0709         91
  28.0895         88
  28.1080        106
  28.1266         91
  28.1452        105
  28.1638         90
  28.1823         84
  28.2009         88
  28.2195         93
  28.2381         90
  28.2567         85
  28.2752         78
  28.2938         99
  28.3124         87
  28.3310         81
  28.3495         79
  28.3681        101
  28.3867         90
  28.4053         83
  28.4238         88
  28.4424         78
  28.4610         87
  28.4796         71
  28.4981         74
  28.5167         88
  28.5353         85
  28.5539         78
  28.5724         85
  28.5910         92
  28.6096         68
  28.6282         85
  28.6467         80
  28.6653         92
  28.6839         83
  28.7025         89
  28.7210         78
  28.7396         78
  28.7582         99
  28.7768         79
  28.7953         83
  28.8139         92
  28.8325         78
  28.8511         81
  28.8696         79
  28.8882         85
  28.9068         79
  28.9254         78
  28.9439         93
  28.9625         71
  28.9811         80
  28.9997         90
  29.0183         87
  29.0368         92
  29.0554         87
  29.0740         90
  29.0926         81
  29.1111         81
  29.1297         88
  29.1483         88
  29.1669         75
  29.1854         78
  29.2040         87
  29.2226         77
  29.2412         66
  29.2597         88
  29.2783         87
  29.2969         85
  29.3155         68
  29.3340         78
  29.3526        107
  29.3712         85
  29.3898         86
  29.4083         87
  29.4269         80
  29.4455         71
  29.4641         84
  29.4826         88
  29.5012         96
  29.5198         73
  29.5384         94
  29.5569         84
  29.5755         74
  29.5941         70
  29.6127         81
  29.6312         80
  29.6498         74
  29.6684         87
  29.6870         80
  29.7055         73
  29.7241         64
  29.7427         77
  29.7613         91
  29.7799         70
  29.7984         81
  29.8170         74
  29.8356         79
  29.8542         65
  29.8727         66
  29.8913         71
  29.9099         86
  29.9285         70
  29.9470         90
  29.9656         72
  29.9842         77
  30.0028         87
  30.0213         76
  30.0399         78
  30.0585         79
  30.0771         73
  30.0956         76
  30.1142         77
  30.1328         92
  30.1514         70
  30.1699         77
  30.1885         80
  30.2071         77
  30.2257         95
  30.2442         89
  30.2628         88
  30.2814         95
  30.3000         95
  30.3185         84
  30.3371        115
  30.3557        121
  30.3743        148
  30.3928        191
  30.4114        125
  30.4300        103
  30.4486        139
  30.4671        139
  30.4857         92
  30.5043         87
  30.5229         94
  30.5415         76
  30.5600         90
  30.5786         65
  30.5972         83
  30.6158         85
  30.6343         58
  30.6529         72
  30.6715         65
  30.6901         68
  30.7086         71
  30.7272         63
  30.7458         66
  30.7644         74
  30.7829         75
  30.8015         77
  30.8201         68
  30.8387         62
  30.8572         85
  30.8758         55
  30.8944         66
  30.9130         52
  30.9315         75
  30.9501         71
  30.9687         69
  30.9873         65
  31.0058         66
  31.0244         72
  31.0430         63
  31.0616         64
  31.0801         62
  31.0987         66
  31.1173         58
  31.1359         65
  31.1544         70
  31.1730         61
  31.1916         70
  31.2102         87
  31.2287         77
  31.2473         73
  31.2659         68
  31.2845         68
  31.3030         66
  31.3216         63
  31.3402         79
  31.3588         65
  31.3774         70
  31.3959         71
  31.4145         71
  31.4331         65
  31.4517         73
  31.4702         61
  31.4888         67
  31.5074         73
  31.5260         73
  31.5445         70
  31.5631         77
  31.5817         74
  31.6003         67
  31.6188         65
  31.6374         80
  31.6560         68
  31.6746         73
  31.6931         76
  31.7117         72
  31.7303         66
  31.7489         80
  31.7674         68
  31.7860         56
  31.8046         61
  31.8232         58
  31.8417         69
  31.8603         70
  31.8789         68
  31.8975         56
  31.9160         46
  31.9346         58
  31.9532         72
  31.9718         65
  31.9903         63
  32.0089         63
  32.0275         57
  32.0461         77
  32.0646         70
  32.0832         53
  32.1018         62
  32.1204         59
  32.1390         83
  32.1575         70
  32.1761         58
  32.1947         71
  32.2133         70
  32.2318         61
  32.2504         74
  32.2690         63
  32.2876         91
  32.3061         67
  32.3247         71
  32.3433         66
  32.3619         78
  32.3804         83
  32.3990         75
  32.4176         67
  32.4362         72
  32.4547         71
  32.4733         80
  32.4919         66
  32.5105         89
  32.5290         78
  32.5476         65
  32.5662         58
  32.5848         68
  32.6033         64
  32.6219         65
  32.6405         51
  32.6591         71
  32.6776         59
  32.6962         55
  32.7148         61
  32.7334         60
  32.7519         66
  32.7705         67
  32.7891         68
  32.8077         62
  32.8262         67
  32.8448         59
  32.8634         63
  32.8820         71
  32.9006         58
  32.9191         62
  32.9377         50
  32.9563         61
  32.9749         75
  32.9934         61
  33.0120         70
  33.0306         56
  33.0492         76
  33.0677         74
  33.0863         47
  33.1049         53
  33.1235         46
  33.1420         58
  33.1606         71
  33.1792         43
  33.1978         55
  33.2163         58
  33.2349         58
  33.2535         56
  33.2721         62
  33.2906         52
  33.3092         58
  33.3278         52
  33.3464         65
  33.3649         61
  33.3835         50
  33.4021         56
  33.4207         59
  33.4392         52
  33.4578         65
  33.4764         48
  33.4950         49
  33.5135         69
  33.5321         59
  33.5507         60
  33.5693         56
  33.5878         59
  33.6064         57
  33.6250         46
  33.6436         64
  33.6622         63
  33.6807         56
  33.6993         54
  33.7179         54
  33.7365         54
  33.7550         62
  33.7736         58
  33.7922         55
  33.8108         60
  33.8293         55
  33.8479         52
  33.8665         64
  33.8851         74
  33.9036         52
  33.9222         74
  33.9408         49
  33.9594         63
  33.9779         69
  33.9965         54
  34.0151         71
  34.0337         58
  34.0522         60
  34.0708         41
  34.0894         47
  34.1080         49
  34.1265         63
  34.1451         52
  34.1637         60
  34.1823         52
  34.2008         64
  34.2194         59
  34.2380         59
  34.2566         63
  34.2751         46
  34.2937         47
  34.3123         49
  34.3309         52
  34.3494         59
  34.3680         52
  34.3866         71
  34.4052         69
  34.4238         47
  34.4423         57
  34.4609         42
  34.4795         66
  34.4981         63
  34.5166         53
  34.5352         74
  34.5538         73
  34.5724         54
  34.5909         66
  34.6095         67
  34.6281         67
  34.6467         51
  34.6652         76
  34.6838         58
  34.7024         69
  34.7210         58
  34.7395         75
  34.7581         92
  34.7767         83
  34.7953         66
  34.8138         78
  34.8324         72
  34.8510         59
  34.8696         68
  34.8881         74
  34.9067         62
  34.9253         57
  34.9439         54
  34.9624         55
  34.9810         45
  34.9996         55
  35.0182         46
  35.0367         57
  35.0553         66
  35.0739         75
  35.0925         54
  35.1110         75
  35.1296         49
  35.1482         47
  35.1668         45
  35.1854         53
  35.2039         60
  35.2225         59
  35.2411         62
  35.2597         52
  35.2782         57
  35.2968         59
  35.3154         56
  35.3340         45
  35.3525         52
  35.3711         41
  35.3897         43
  35.4083         48
  35.4268         52
  35.4454         51
  35.4640         49
  35.4826         49
  35.5011         57
  35.5197         56
  35.5383         49
  35.5569         52
  35.5754         44
  35.5940         72
  35.6126         59
  35.6312         43
  35.6497         60
  35.6683         39
  35.6869         69
  35.7055         53
  35.7240         30
  35.7426         53
  35.7612         57
  35.7798         47
  35.7983         45
  35.8169         62
  35.8355         42
  35.8541         42
  35.8726         55
  35.8912         53
  35.9098         49
  35.9284         44
  35.9469         37
  35.9655         54
  35.9841         45
  36.0027         51
  36.0213         40
  36.0398         49
  36.0584         44
  36.0770         47
  36.0956         64
  36.1141         46
  36.1327         53
  36.1513         54
  36.1699         42
  36.1884         41
  36.2070         49
  36.2256         52
  36.2442         44
  36.2627         48
  36.2813         46
  36.2999         41
  36.3185         35
  36.3370         48
  36.3556         39
  36.3742         65
  36.3928         47
  36.4113         38
  36.4299         43
  36.4485         26
  36.4671         53
  36.4856         48
  36.5042         53
  36.5228         52
  36.5414         53
  36.5599         55
  36.5785         59
  36.5971         52
  36.6157         46
  36.6342         65
  36.6528         43
  36.6714         44
  36.6900         45
  36.7085         61
  36.7271         40
  36.7457         41
  36.7643         55
  36.7829         36
  36.8014         39
  36.8200         39
  36.8386         51
  36.8572         50
  36.8757         53
  36.8943         41
  36.9129         48
  36.9315         42
  36.9500         48
  36.9686         51
  36.9872         49
  37.0058         47
  37.0243         37
  37.0429         38
  37.0615         46
  37.0801         46
  37.0986         39
  37.1172         53
  37.1358         47
  37.1544         45
  37.1729         49
  37.1915         41
  37.2101         45
  37.2287         47
  37.2472         49
  37.2658         50
  37.2844         36
  37.3030         43
  37.3215         38
  37.3401         49
  37.3587         61
  37.3773         39
  37.3958         53
  37.4144         43
  37.4330         79
  37.4516         79
  37.4701         61
  37.4887         57
  37.5073         45
  37.5259         60
  37.5445         65
  37.5630         66
  37.5816         57
  37.6002         52
  37.6188         45
  37.6373         40
  37.6559         49
  37.6745         43
  37.6931         48
  37.7116         43
  37.7302         43
  37.7488         41
  37.7674         42
  37.7859         42
  37.8045         47
  37.8231         46
  37.8417         47
  37.8602         39
  37.8788         52
  37.8974         43
  37.9160         37
  37.9345         42
  37.9531         42
  37.9717         38
  37.9903         33
  38.0088         45
  38.0274         43
  38.0460         44
  38.0646         50
  38.0831         48
  38.1017         47
  38.1203         47
  38.1389         35
  38.1574         47
  38.1760         51
  38.1946         46
  38.2132         44
  38.2317         42
  38.2503         38
  38.2689         34
  38.2875         48
  38.3061         32
  38.3246         41
  38.3432         40
  38.3618         46
  38.3804         49
  38.3989         48
  38.4175         44
  38.4361         47
  38.4547         38
  38.4732         25
  38.4918         41
  38.5104         31
  38.5290         36
  38.5475         40
  38.5661         36
  38.5847         47
  38.6033         51
  38.6218         42
  38.6404         44
  38.6590         41
  38.6776         36
  38.6961         34
  38.7147         31
  38.7333         40
  38.7519         35
  38.7704         55
  38.7890         45
  38.8076         43
  38.8262         37
  38.8447         48
  38.8633         51
  38.8819         57
  38.9005         45
  38.9190         34
  38.9376         43
  38.9562         41
  38.9748         49
  38.9933         37
  39.0119         43
  39.0305         39
  39.0491         32
  39.0677         38
  39.0862         47
  39.1048         51
  39.1234         51
  39.1420         38
  39.1605         45
  39.1791         37
  39.1977         39
  39.2163         37
  39.2348         36
  39.2534         35
  39.2720         42
  39.2906         42
  39.3091         40
  39.3277         45
  39.3463         35
  39.3649         40
  39.3834         39
  39.4020         47
  39.4206         35
  39.4392         35
  39.4577         39
  39.4763         32
  39.4949         33
  39.5135         39
  39.5320         31
  39.5506         40
  39.5692         37
  39.5878         50
  39.6063         37
  39.6249         45
  39.6435         48
  39.6621         47
  39.6806         30
  39.6992         44
  39.7178         40
  39.7364         47
  39.7549         35
  39.7735         36
  39.7921         32
  39.8107         37
  39.8293         46
  39.8478         30
  39.8664         52
  39.8850         59
  39.9036         36
  39.9221         37
  39.9407         33
  39.9593         48
  39.9779         36
  39.9964         50
  40.0150         47
  40.0336         59
  40.0522         56
  40.0707         40
  40.0893         35
  40.1079         35
  40.1265         37
  40.1450         29
  40.1636         44
  40.1822         39
  40.2008         37
  40.2193         38
  40.2379         32
  40.2565         38
  40.2751         35
  40.2936         38
  40.3122         40
  40.3308         36
  40.3494         37
  40.3679         35
  40.3865         36
  40.4051         49
  40.4237         42
  40.4422         38
  40.4608         54
  40.4794         36
  40.4980         37
  40.5165         33
  40.5351         32
  40.5537         29
  40.5723         40
  40.5908         38
  40.6094         52
  40.6280         41
  40.6466         39
  40.6652         31
  40.6837         45
  40.7023         39
  40.7209         37
  40.7395         38
  40.7580         47
  40.7766         37
  40.7952         35
  40.8138         34
  40.8323         31
  40.8509         45
  40.8695         36
  40.8881         43
  40.9066         36
  40.9252         33
  40.9438         39
  40.9624         37
  40.9809         38
  40.9995         44
  41.0181         38
  41.0367         46
  41.0552         46
  41.0738         37
  41.0924         44
  41.1110         43
  41.1295         36
  41.1481         39
  41.1667         51
  41.1853         43
  41.2038         32
  41.2224         31
  41.2410         37
  41.2596         37
  41.2781         34
  41.2967         47
  41.3153         26
  41.3339         38
  41.3524         39
  41.3710         34
  41.3896         36
  41.4082         51
  41.4268         39
  41.4453         40
  41.4639         34
  41.4825         35
  41.5011         35
  41.5196         34
  41.5382         40
  41.5568         40
  41.5754         46
  41.5939         38
  41.6125         32
  41.6311         33
  41.6497         38
  41.6682         28
  41.6868         36
  41.7054         39
  41.7240         38
  41.7425         37
  41.7611         35
  41.7797         35
  41.7983         31
  41.8168         33
  41.8354         36
  41.8540         35
  41.8726         47
  41.8911         35
  41.9097         43
  41.9283         38
  41.9469         35
  41.9654         30
  41.9840         29
  42.0026         31
  42.0212         35
  42.0397         46
  42.0583         45
  42.0769         38
  42.0955         41
  42.1140         38
  42.1326         28
  42.1512         36
  42.1698         40
  42.1884         39
  42.2069         42
  42.2255         42
  42.2441         29
  42.2627         35
  42.2812         30
  42.2998         40
  42.3184         38
  42.3370         37
  42.3555         37
  42.3741         31
  42.3927         33
  42.4113         40
  42.4298         37
  42.4484         36
  42.4670         51
  42.4856         30
  42.5041         51
  42.5227         33
  42.5413         45
  42.5599         33
  42.5784         41
  42.5970         45
  42.6156         33
  42.6342         49
  42.6527         40
  42.6713         28
  42.6899         52
  42.7085         38
  42.7270         36
  42.7456         39
  42.7642         31
  42.7828         47
  42.8013         28
  42.8199         35
  42.8385         38
  42.8571         50
  42.8756         37
  42.8942         43
  42.9128         45
  42.9314         38
  42.9500         33
  42.9685         33
  42.9871         30
  43.0057         29
  43.0243         44
  43.0428         39
  43.0614         25
  43.0800         28
  43.0986         36
  43.1171         38
  43.1357         36
  43.1543         31
  43.1729         30
  43.1914         36
  43.2100         49
  43.2286         50
  43.2472         38
  43.2657         40
  43.2843         45
  43.3029         36
  43.3215         47
  43.3400         40
  43.3586         49
  43.3772         35
  43.3958         44
  43.4143         42
  43.4329         44
  43.4515         51
  43.4701         52
  43.4886         61
  43.5072         83
  43.5258         59
  43.5444         54
  43.5629         47
  43.5815         39
  43.6001         50
  43.6187         45
  43.6372         48
  43.6558         37
  43.6744         48
  43.6930         40
  43.7116         40
  43.7301         45
  43.7487         41
  43.7673         37
  43.7859         47
  43.8044         42
  43.8230         36
  43.8416         37
  43.8602         26
  43.8787         45
  43.8973         41
  43.9159         38
  43.9345         35
  43.9530         37
  43.9716         49
  43.9902         30
  44.0088         36
  44.0273         33
  44.0459         41
  44.0645         32
  44.0831         32
  44.1016         39
  44.1202         31
  44.1388         37
  44.1574         38
  44.1759         36
  44.1945         36
  44.2131         41
  44.2317         43
  44.2502         34
  44.2688         45
  44.2874         39
  44.3060         33
  44.3245         43
  44.3431         46
  44.3617         42
  44.3803         41
  44.3988         42
  44.4174         37
  44.4360         33
  44.4546         38
  44.4732         33
  44.4917         34
  44.5103         37
  44.5289         43
  44.5475         42
  44.5660         46
  44.5846         43
  44.6032         46
  44.6218         40
  44.6403         48
  44.6589         33
  44.6775         41
  44.6961         36
  44.7146         35
  44.7332         40
  44.7518         48
  44.7704         44
  44.7889         41
  44.8075         42
  44.8261         31
  44.8447         41
  44.8632         41
  44.8818         37
  44.9004         36
  44.9190         37
  44.9375         33
  44.9561         39
  44.9747         32
  44.9933         27
  45.0118         31
  45.0304         35
  45.0490         26
  45.0676         35
  45.0861         28
  45.1047         37
  45.1233         37
  45.1419         28
  45.1604         33
  45.1790         27
  45.1976         35
  45.2162         34
  45.2347         31
  45.2533         49
  45.2719         27
  45.2905         33
  45.3091         30
  45.3276         31
  45.3462         29
  45.3648         38
  45.3834         32
  45.4019         28
  45.4205         44
  45.4391         22
  45.4577         42
  45.4762         33
  45.4948         36
  45.5134         38
  45.5320         35
  45.5505         38
  45.5691         39
  45.5877         26
  45.6063         27
  45.6248         43
  45.6434         33
  45.6620         37
  45.6806         36
  45.6991         33
  45.7177         33
  45.7363         41
  45.7549         39
  45.7734         38
  45.7920         28
  45.8106         34
  45.8292         31
  45.8477         35
  45.8663         49
  45.8849         37
  45.9035         38
  45.9220         38
  45.9406         38
  45.9592         35
  45.9778         33
  45.9963         33
  46.0149         26
  46.0335         32
  46.0521         22
  46.0707         28
  46.0892         35
  46.1078         35
  46.1264         37
  46.1450         30
  46.1635         32
  46.1821         40
  46.2007         30
  46.2193         35
  46.2378         26
  46.2564         32
  46.2750         32
  46.2936         36
  46.3121         33
  46.3307         28
  46.3493         32
  46.3679         17
  46.3864         29
  46.4050         36
  46.4236         43
  46.4422         26
  46.4607         39
  46.4793         35
  46.4979         34
  46.5165         35
  46.5350         30
  46.5536         31
  46.5722         34
  46.5908         32
  46.6093         30
  46.6279         32
  46.6465         25
  46.6651         43
  46.6836         26
  46.7022         33
  46.7208         24
  46.7394         28
  46.7579         39
  46.7765         32
  46.7951         30
  46.8137         35
  46.8323         31
  46.8508         40
  46.8694         36
  46.8880         31
  46.9066         32
  46.9251         33
  46.9437         37
  46.9623         48
  46.9809         28
  46.9994         37
  47.0180         41
  47.0366         37
  47.0552         28
  47.0737         28
  47.0923         35
  47.1109         28
  47.1295         36
  47.1480         37
  47.1666         32
  47.1852         39
  47.2038         32
  47.2223         27
  47.2409         24
  47.2595         32
  47.2781         36
  47.2966         33
  47.3152         29
  47.3338         30
  47.3524         35
  47.3709         32
  47.3895         32
  47.4081         26
  47.4267         33
  47.4452         33
  47.4638         44
  47.4824         25
  47.5010         24
  47.5195         26
  47.5381         41
  47.5567         23
  47.5753         33
  47.5939         36
  47.6124         29
  47.6310         35
  47.6496         26
  47.6682         38
  47.6867         27
  47.7053         32
  47.7239         25
  47.7425         36
  47.7610         32
  47.7796         38
  47.7982         41
  47.8168         27
  47.8353         32
  47.8539         31
  47.8725         40
  47.8911         29
  47.9096         42
  47.9282         28
  47.9468         27
  47.9654         26
  47.9839         38
  48.0025         20
  48.0211         26
  48.0397         35
  48.0582         35
  48.0768         37
  48.0954         43
  48.1140         25
  48.1325         23
  48.1511         33
  48.1697         23
  48.1883         28
  48.2068         33
  48.2254         32
  48.2440         32
  48.2626         37
  48.2811         33
  48.2997         39
  48.3183         29
  48.3369         28
  48.3555         31
  48.3740         34
  48.3926         43
  48.4112         34
  48.4298         29
  48.4483         34
  48.4669         33
  48.4855         24
  48.5041         26
  48.5226         22
  48.5412         26
  48.5598         28
  48.5784         34
  48.5969         37
  48.6155         37
  48.6341         36
  48.6527         49
  48.6712         35
  48.6898         38
  48.7084         28
  48.7270         26
  48.7455         41
  48.7641         33
  48.7827         27
  48.8013         27
  48.8198         40
  48.8384         40
  48.8570         41
  48.8756         34
  48.8941         37
  48.9127         41
  48.9313         43
  48.9499         61
  48.9684         61
  48.9870         37
  49.0056         37
  49.0242         24
  49.0427         47
  49.0613         44
  49.0799         38
  49.0985         39
  49.1171         38
  49.1356         25
  49.1542         34
  49.1728         39
  49.1914         36
  49.2099         26
  49.2285         36
  49.2471         39
  49.2657         24
  49.2842         36
  49.3028         30
  49.3214         28
  49.3400         31
  49.3585         38
  49.3771         32
  49.3957         25
  49.4143         24
  49.4328         34
  49.4514         22
  49.4700         38
  49.4886         29
  49.5071         20
  49.5257         44
  49.5443         28
  49.5629         32
  49.5814         44
  49.6000         33
  49.6186         33
  49.6372         27
  49.6557         28
  49.6743         27
  49.6929         29
  49.7115         32
  49.7300         32
  49.7486         36
  49.7672         29
  49.7858         30
  49.8043         27
  49.8229         41
  49.8415         30
  49.8601         34
  49.8786         29
  49.8972         27
  49.9158         34
  49.9344         32
  49.9530         17
  49.9715         28
  49.9901         29
  50.0087         27
  50.0273         28
  50.0458         35
  50.0644         20
  50.0830         35
  50.1016         29
  50.1201         31
  50.1387         29
  50.1573         22
  50.1759         28
  50.1944         34
  50.2130         28
  50.2316         27
  50.2502         32
  50.2687         29
  50.2873         33
  50.3059         30
  50.3245         34
  50.3430         33
  50.3616         48
  50.3802         32
  50.3988         32
  50.4173         34
  50.4359         27
  50.4545         26
  50.4731         34
  50.4916         28
  50.5102         24
  50.5288         30
  50.5474         37
  50.5659         40
  50.5845         17
  50.6031         38
  50.6217         37
  50.6402         38
  50.6588         29
  50.6774         38
  50.6960         27
  50.7146         31
  50.7331         27
  50.7517         30
  50.7703         26
  50.7889         25
  50.8074         25
  50.8260         24
  50.8446         24
  50.8632         38
  50.8817         22
  50.9003         23
  50.9189         29
  50.9375         27
  50.9560         45
  50.9746         32
  50.9932         40
  51.0118         29
  51.0303         35
  51.0489         37
  51.0675         24
  51.0861         32
  51.1046         27
  51.1232         29
  51.1418         25
  51.1604         28
  51.1789         35
  51.1975         29
  51.2161         26
  51.2347         37
  51.2532         35
  51.2718         28
  51.2904         22
  51.3090         26
  51.3275         31
  51.3461         26
  51.3647         36
  51.3833         34
  51.4018         29
  51.4204         30
  51.4390         35
  51.4576         31
  51.4762         25
  51.4947         26
  51.5133         31
  51.5319         41
  51.5505         36
  51.5690         33
  51.5876         29
  51.6062         35
  51.6248         36
  51.6433         25
  51.6619         31
  51.6805         32
  51.6991         34
  51.7176         23
  51.7362         31
  51.7548         26
  51.7734         29
  51.7919         32
  51.8105         30
  51.8291         27
  51.8477         35
  51.8662         30
  51.8848         35
  51.9034         37
  51.9220         24
  51.9405         20
  51.9591         27
  51.9777         36
  51.9963         30
  52.0148         24
  52.0334         30
  52.0520         33
  52.0706         31
  52.0891         34
  52.1077         21
  52.1263         27
  52.1449         21
  52.1634         25
  52.1820         35
  52.2006         38
  52.2192         32
  52.2378         25
  52.2563         32
  52.2749         38
  52.2935         27
  52.3121         18
  52.3306         40
  52.3492         23
  52.3678         25
  52.3864         28
  52.4049         26
  52.4235         30
  52.4421         24
  52.4607         27
  52.4792         28
  52.4978         25
  52.5164         24
  52.5350         32
  52.5535         23
  52.5721         34
  52.5907         35
  52.6093         22
  52.6278         27
  52.6464         39
  52.6650         33
  52.6836         26
  52.7021         33
  52.7207         23
  52.7393         30
  52.7579         25
  52.7764         28
  52.7950         27
  52.8136         30
  52.8322         42
  52.8507         27
  52.8693         17
  52.8879         35
  52.9065         27
  52.9250         28
  52.9436         29
  52.9622         30
  52.9808         33
  52.9994         37
  53.0179         43
  53.0365         34
  53.0551         20
  53.0737         28
  53.0922         32
  53.1108         32
  53.1294         26
  53.1480         38
  53.1665         24
  53.1851         31
  53.2037         28
  53.2223         21
  53.2408         34
  53.2594         28
  53.2780         31
  53.2966         23
  53.3151         33
  53.3337         39
  53.3523         36
  53.3709         31
  53.3894         27
  53.4080         24
  53.4266         24
  53.4452         28
  53.4637         27
  53.4823         34
  53.5009         19
  53.5195         25
  53.5380         32
  53.5566         24
  53.5752         26
  53.5938         28
  53.6123         20
  53.6309         31
  53.6495         31
  53.6681         39
  53.6866         24
  53.7052         32
  53.7238         23
  53.7424         29
  53.7610         26
  53.7795         36
  53.7981         17
  53.8167         20
  53.8353         20
  53.8538         23
  53.8724         36
  53.8910         26
  53.9096         23
  53.9281         18
  53.9467         39
  53.9653         42
  53.9839         36
  54.0024         40
  54.0210         37
  54.0396         36
  54.0582         44
  54.0767         39
  54.0953         43
  54.1139         36
  54.1325         40
  54.1510         35
  54.1696         31
  54.1882         30
  54.2068         28
  54.2253         32
  54.2439         34
  54.2625         18
  54.2811         24
  54.2996         34
  54.3182         28
  54.3368         34
  54.3554         33
  54.3739         27
  54.3925         28
  54.4111         39
  54.4297         39
  54.4482         27
  54.4668         28
  54.4854         22
  54.5040         32
  54.5225         33
  54.5411         33
  54.5597         32
  54.5783         29
  54.5969         39
  54.6154         31
  54.6340         27
  54.6526         19
  54.6712         27
  54.6897         23
  54.7083         32
  54.7269         17
  54.7455         24
  54.7640         28
  54.7826         30
  54.8012         30
  54.8198         26
  54.8383         36
  54.8569         27
  54.8755         23
  54.8941         19
  54.9126         31
  54.9312         22
  54.9498         24
  54.9684         26
  54.9869         19
  55.0055         18
  55.0241         30
  55.0427         30
  55.0612         38
  55.0798         30
  55.0984         34
  55.1170         30
  55.1355         24
  55.1541         40
  55.1727         36
  55.1913         21
  55.2098         24
  55.2284         24
  55.2470         27
  55.2656         36
  55.2841         30
  55.3027         30
  55.3213         33
  55.3399         26
  55.3585         36
  55.3770         31
  55.3956         28
  55.4142         30
  55.4328         35
  55.4513         24
  55.4699         21
  55.4885         22
  55.5071         29
  55.5256         24
  55.5442         30
  55.5628         29
  55.5814         22
  55.5999         23
  55.6185         29
  55.6371         23
  55.6557         32
  55.6742         28
  55.6928         22
  55.7114         29
  55.7300         28
  55.7485         37
  55.7671         30
  55.7857         28
  55.8043         33
  55.8228         33
  55.8414         27
  55.8600         32
  55.8786         30
  55.8971         20
  55.9157         25
  55.9343         36
  55.9529         34
  55.9714         23
  55.9900         40
  56.0086         32
  56.0272         21
  56.0457         34
  56.0643         34
  56.0829         27
  56.1015         22
  56.1201         22
  56.1386         32
  56.1572         30
  56.1758         38
  56.1944         33
  56.2129         37
  56.2315         35
  56.2501         34
  56.2687         38
  56.2872         29
  56.3058         31
  56.3244         25
  56.3430         38
  56.3615         30
  56.3801         31
  56.3987         32
  56.4173         28
  56.4358         35
  56.4544         31
  56.4730         20
  56.4916         29
  56.5101         36
  56.5287         30
  56.5473         33
  56.5659         34
  56.5844         27
  56.6030         29
  56.6216         22
  56.6402         38
  56.6587         27
  56.6773         31
  56.6959         27
  56.7145         21
  56.7330         24
  56.7516         20
  56.7702         31
  56.7888         27
  56.8073         26
  56.8259         26
  56.8445         28
  56.8631         25
  56.8817         29
  56.9002         24
  56.9188         31
  56.9374         23
  56.9560         31
  56.9745         27
  56.9931         23
  57.0117         21
  57.0303         34
  57.0488         31
  57.0674         32
  57.0860         25
  57.1046         32
  57.1231         21
  57.1417         28
  57.1603         31
  57.1789         29
  57.1974         28
  57.2160         20
  57.2346         24
  57.2532         33
  57.2717         27
  57.2903         29
  57.3089         24
  57.3275         29
  57.3460         23
  57.3646         22
  57.3832         33
  57.4018         25
  57.4203         29
  57.4389         17
  57.4575         33
  57.4761         32
  57.4946         23
  57.5132         23
  57.5318         35
  57.5504         31
  57.5689         28
  57.5875         28
  57.6061         28
  57.6247         32
  57.6433         29
  57.6618         37
  57.6804         23
  57.6990         27
  57.7176         37
  57.7361         29
  57.7547         30
  57.7733         32
  57.7919         22
  57.8104         23
  57.8290         17
  57.8476         23
  57.8662         34
  57.8847         25
  57.9033         29
  57.9219         24
  57.9405         28
  57.9590         38
  57.9776         31
  57.9962         23
  58.0148         27
  58.0333         29
  58.0519         23
  58.0705         31
  58.0891         27
  58.1076         25
  58.1262         32
  58.1448         34
  58.1634         22
  58.1819         26
  58.2005         29
  58.2191         27
  58.2377         31
  58.2562          9
  58.2748         33
  58.2934         14
  58.3120         29
  58.3305         21
  58.3491         25
  58.3677         36
  58.3863         23
  58.4049         21
  58.4234         29
  58.4420         24
  58.4606         29
  58.4792         26
  58.4977         30
  58.5163         30
  58.5349         24
  58.5535         23
  58.5720         30
  58.5906         29
  58.6092         26
  58.6278         34
  58.6463         25
  58.6649         33
  58.6835         24
  58.7021         24
  58.7206         28
  58.7392         30
  58.7578         29
  58.7764         27
  58.7949         29
  58.8135         23
  58.8321         28
  58.8507         31
  58.8692         30
  58.8878         33
  58.9064         19
  58.9250         37
  58.9435         30
  58.9621         25
  58.9807         27
  58.9993         22
  59.0178         20
  59.0364         37
  59.0550         33
  59.0736         19
  59.0921         26
  59.1107         29
  59.1293         34
  59.1479         33
  59.1664         29
  59.1850         31
  59.2036         35
  59.2222         31
  59.2408         29
  59.2593         26
  59.2779         22
  59.2965         23
  59.3151         30
  59.3336         25
  59.3522         29
  59.3708         23
  59.3894         34
  59.4079         33
  59.4265         25
  59.4451         34
  59.4637         24
  59.4822         28
  59.5008         22
  59.5194         25
  59.5380         32
  59.5565         30
  59.5751         28
  59.5937         30
  59.6123         29
  59.6308         32
  59.6494         35
  59.6680         26
  59.6866         38
  59.7051         19
  59.7237         23
  59.7423         30
  59.7609         24
  59.7794         27
  59.7980         22
  59.8166         25
  59.8352         33
  59.8537         27
  59.8723         28
  59.8909         31
  59.9095         21
  59.9280         27
  59.9466         32
  59.9652         31
  59.9838         11
  60.0024         33
