; (content of file Y:\Sam\Apurva-07-20-2022\puck4\ML_20220718_56_SJD_4_LaB6-1min.raw)
_FILEVERSION = 3
_SAMPLE = ML_20220718_56_SJD_4_LaB6-1min
_+SAMPLE = 
_SITE = USA
_USER = Administrator
_GONIOMETER_CODE = 20
; Goniometer : D8 theta/2theta, stage : Unknown
_ATTACHMENTS_CODE = 0
_GONIOMETER_RADIUS = 200.5
_FIXED_DIVSLIT = 0.6
_FIXED_SAMPLESLIT = 0
_SOLLER_SLITS = 2
_FIXED_DETSLIT = 9.55
_MONOCHROMATOR = 0
; Incident beam monochromator : None
_SOLLER_SLITS_2 = N
_THIN_FILM = N
_BETA_FILTER = Y
_FIXED_ANTISLIT = 5.89
_ANALYZER_CODE = 0
; Received beam analyzer : None
_DATEMEASURED = "26-Jul-2022 11:00:35"
_WL_UNIT = A
_WL1 = 1.5406
_WL2 = 1.54439
_WL3 = 1.39222
_WLRATIO = 0.5
_ANODE = Cu
_V4_INF_CREATOR = XRDWizard
_V4_INF_CREATOR_VERSION = V2.9.0.22
_V4_INF_WIZARD_VERSION = V2.9.0.22
_V4_INF_WIZARD_ADDINS = V2.9.0.22
_V4_INF_WIZARD_DOCTYPE = XRD
_V4_INF_OSUSER = McQueenLab
_V4_INF_USER = Administrator
_V4_INF_SITE = USA
_V4_INF_SAMPLEID = ML_20220718_56_SJD_4_LaB6-1min

; Data for range 1
_DRIVE = COUPLED
_STEPTIME = 4.23
_STEPSIZE = 0.0185756
_STEPMODE = C
_START = 5
_THETA = 2.5
_2THETA = 5
_KHI = 0
_PHI = 0
_X = 0
_Y = 0
_Z = 0
_DETECTOR = 5
; Detector type : Unknown
_DETECTORSLIT = unkn
_AUX1 = 0
_AUX2 = 0
_AUX3 = 0
_TIMESTARTED = 15
_TEMP_RATE = -1
_TEMP_DELAY = -1
_KV = 40
_MA = 40
_RANGE_WL = 1.5406
_3DPLANE = 0
_V4_ADDITIONALDETECTOR = 257
_V4_PSD2THETA = 3.3771
_V4_PSDCHANNEL1 = 0
_V4_PSDAPERTURE = 12.68
_V4_PSDTYPE = 5
_V4_PSDFIXED = 0
_V4_COUNTERS_MASK = 4096
_V4_DRIVES_MASK = 0
_V4_ENCODERS_MASK = 0
_2THETACOUNTS = 1
; 2THETA  PSD
   5.0000         99
   5.0186        106
   5.0372         96
   5.0557         90
   5.0743         83
   5.0929         96
   5.1115        104
   5.1300        105
   5.1486         95
   5.1672         91
   5.1858        102
   5.2043        105
   5.2229         85
   5.2415         91
   5.2601         85
   5.2786        107
   5.2972         93
   5.3158         86
   5.3344         96
   5.3529         97
   5.3715         81
   5.3901         95
   5.4087         76
   5.4272         82
   5.4458         93
   5.4644         84
   5.4830         65
   5.5015         81
   5.5201         89
   5.5387         96
   5.5573         89
   5.5758         83
   5.5944         75
   5.6130         92
   5.6316         69
   5.6501         83
   5.6687         87
   5.6873         79
   5.7059         98
   5.7244         82
   5.7430         92
   5.7616         92
   5.7802         75
   5.7988         84
   5.8173         83
   5.8359         85
   5.8545         84
   5.8731         73
   5.8916         72
   5.9102         74
   5.9288         66
   5.9474         72
   5.9659         66
   5.9845         81
   6.0031         87
   6.0217         81
   6.0402         64
   6.0588         64
   6.0774         63
   6.0960         82
   6.1145         73
   6.1331         58
   6.1517         50
   6.1703         72
   6.1888         65
   6.2074         71
   6.2260         54
   6.2446         61
   6.2631         51
   6.2817         63
   6.3003         74
   6.3189         71
   6.3374         62
   6.3560         65
   6.3746         70
   6.3932         69
   6.4117         72
   6.4303         60
   6.4489         58
   6.4675         69
   6.4860         66
   6.5046         54
   6.5232         66
   6.5418         64
   6.5604         55
   6.5789         81
   6.5975         73
   6.6161         75
   6.6347         62
   6.6532         58
   6.6718         61
   6.6904         67
   6.7090         78
   6.7275         79
   6.7461         65
   6.7647         57
   6.7833         54
   6.8018         66
   6.8204         50
   6.8390         65
   6.8576         70
   6.8761         64
   6.8947         52
   6.9133         48
   6.9319         65
   6.9504         62
   6.9690         63
   6.9876         69
   7.0062         59
   7.0247         47
   7.0433         63
   7.0619         47
   7.0805         57
   7.0990         64
   7.1176         42
   7.1362         41
   7.1548         59
   7.1733         50
   7.1919         50
   7.2105         53
   7.2291         77
   7.2476         65
   7.2662         59
   7.2848         61
   7.3034         76
   7.3220         65
   7.3405         51
   7.3591         63
   7.3777         67
   7.3963         52
   7.4148         61
   7.4334         51
   7.4520         61
   7.4706         70
   7.4891         54
   7.5077         66
   7.5263         49
   7.5449         54
   7.5634         64
   7.5820         66
   7.6006         65
   7.6192         72
   7.6377         63
   7.6563         61
   7.6749         56
   7.6935         71
   7.7120         56
   7.7306         59
   7.7492         67
   7.7678         57
   7.7863         66
   7.8049         74
   7.8235         71
   7.8421         69
   7.8606         63
   7.8792         76
   7.8978         77
   7.9164         53
   7.9349         89
   7.9535         63
   7.9721         63
   7.9907         67
   8.0092         69
   8.0278         66
   8.0464         66
   8.0650         67
   8.0835         74
   8.1021         62
   8.1207         66
   8.1393         73
   8.1579         67
   8.1764         77
   8.1950         68
   8.2136         78
   8.2322         62
   8.2507         60
   8.2693         68
   8.2879         63
   8.3065         77
   8.3250         72
   8.3436         87
   8.3622         81
   8.3808         68
   8.3993         81
   8.4179         86
   8.4365         67
   8.4551         87
   8.4736         64
   8.4922         70
   8.5108         76
   8.5294         72
   8.5479         72
   8.5665         79
   8.5851         78
   8.6037         77
   8.6222         81
   8.6408         95
   8.6594         70
   8.6780         74
   8.6965         78
   8.7151         64
   8.7337         76
   8.7523         66
   8.7708         84
   8.7894         62
   8.8080         76
   8.8266         78
   8.8451         73
   8.8637         79
   8.8823         73
   8.9009         82
   8.9195         75
   8.9380         82
   8.9566         70
   8.9752         82
   8.9938         75
   9.0123         83
   9.0309         90
   9.0495         71
   9.0681         60
   9.0866         65
   9.1052         92
   9.1238         73
   9.1424         76
   9.1609         68
   9.1795         81
   9.1981         78
   9.2167         90
   9.2352         81
   9.2538         79
   9.2724         92
   9.2910         87
   9.3095         78
   9.3281         70
   9.3467         76
   9.3653         92
   9.3838         78
   9.4024         69
   9.4210         85
   9.4396         68
   9.4581         80
   9.4767         76
   9.4953         63
   9.5139         94
   9.5324         82
   9.5510         75
   9.5696         92
   9.5882         80
   9.6067         79
   9.6253         78
   9.6439         95
   9.6625         82
   9.6811         83
   9.6996         90
   9.7182         83
   9.7368         81
   9.7554         87
   9.7739         70
   9.7925         89
   9.8111         94
   9.8297         80
   9.8482        107
   9.8668         90
   9.8854         75
   9.9040         98
   9.9225         85
   9.9411         81
   9.9597         79
   9.9783         80
   9.9968         81
  10.0154         98
  10.0340         97
  10.0526         77
  10.0711         85
  10.0897         93
  10.1083         70
  10.1269         87
  10.1454         88
  10.1640         78
  10.1826        103
  10.2012        100
  10.2197         91
  10.2383         78
  10.2569         74
  10.2755         83
  10.2940         87
  10.3126         93
  10.3312         87
  10.3498         79
  10.3683         87
  10.3869         70
  10.4055         68
  10.4241         87
  10.4427         90
  10.4612         88
  10.4798         69
  10.4984         82
  10.5170        100
  10.5355         91
  10.5541         72
  10.5727         91
  10.5913         96
  10.6098         79
  10.6284         90
  10.6470        102
  10.6656        105
  10.6841         91
  10.7027         78
  10.7213         75
  10.7399         72
  10.7584         93
  10.7770         70
  10.7956         94
  10.8142         91
  10.8327         76
  10.8513         92
  10.8699        108
  10.8885         81
  10.9070        107
  10.9256         89
  10.9442        104
  10.9628        102
  10.9813         91
  10.9999         82
  11.0185         92
  11.0371         82
  11.0556         82
  11.0742         88
  11.0928         78
  11.1114         84
  11.1299        117
  11.1485         80
  11.1671         84
  11.1857         87
  11.2043         87
  11.2228        100
  11.2414        106
  11.2600         85
  11.2786         95
  11.2971         94
  11.3157         97
  11.3343         99
  11.3529         94
  11.3714         87
  11.3900         84
  11.4086         92
  11.4272         81
  11.4457         93
  11.4643         88
  11.4829         90
  11.5015         80
  11.5200         86
  11.5386         89
  11.5572         76
  11.5758         79
  11.5943         81
  11.6129         90
  11.6315         89
  11.6501         85
  11.6686         97
  11.6872         91
  11.7058         97
  11.7244         85
  11.7429         99
  11.7615         93
  11.7801         86
  11.7987        101
  11.8172         79
  11.8358         75
  11.8544         81
  11.8730         83
  11.8915         68
  11.9101         72
  11.9287         81
  11.9473         99
  11.9659         74
  11.9844         88
  12.0030         70
  12.0216         83
  12.0402         88
  12.0587         69
  12.0773         71
  12.0959         87
  12.1145         83
  12.1330         81
  12.1516         72
  12.1702        103
  12.1888         59
  12.2073         95
  12.2259         72
  12.2445         71
  12.2631         86
  12.2816         85
  12.3002         65
  12.3188         73
  12.3374         74
  12.3559         94
  12.3745         82
  12.3931         79
  12.4117         93
  12.4302         85
  12.4488         90
  12.4674         72
  12.4860        106
  12.5045         97
  12.5231         71
  12.5417         62
  12.5603         85
  12.5788         85
  12.5974         69
  12.6160         84
  12.6346         85
  12.6531         86
  12.6717         74
  12.6903         80
  12.7089         68
  12.7274         70
  12.7460         85
  12.7646         77
  12.7832         83
  12.8018         78
  12.8203         76
  12.8389         73
  12.8575         87
  12.8761         64
  12.8946         77
  12.9132         76
  12.9318         71
  12.9504         58
  12.9689         70
  12.9875         79
  13.0061         75
  13.0247         85
  13.0432         66
  13.0618         81
  13.0804         82
  13.0990         67
  13.1175         83
  13.1361         69
  13.1547         84
  13.1733         64
  13.1918         82
  13.2104         66
  13.2290         86
  13.2476         67
  13.2661         72
  13.2847         71
  13.3033         85
  13.3219         85
  13.3404         79
  13.3590         85
  13.3776         84
  13.3962         90
  13.4147         78
  13.4333         72
  13.4519         69
  13.4705         64
  13.4890         80
  13.5076         68
  13.5262         70
  13.5448         85
  13.5634         74
  13.5819         87
  13.6005         73
  13.6191         77
  13.6377         73
  13.6562         69
  13.6748         56
  13.6934         75
  13.7120         60
  13.7305         71
  13.7491         77
  13.7677         71
  13.7863         60
  13.8048         76
  13.8234         65
  13.8420         67
  13.8606         70
  13.8791         65
  13.8977         63
  13.9163         71
  13.9349         70
  13.9534         79
  13.9720         62
  13.9906         76
  14.0092         76
  14.0277         77
  14.0463         64
  14.0649         75
  14.0835         54
  14.1020         63
  14.1206         72
  14.1392         67
  14.1578         55
  14.1763         65
  14.1949         67
  14.2135         62
  14.2321         58
  14.2506         69
  14.2692         78
  14.2878         78
  14.3064         67
  14.3250         76
  14.3435         74
  14.3621         75
  14.3807         59
  14.3993         59
  14.4178         74
  14.4364         65
  14.4550         65
  14.4736         54
  14.4921         60
  14.5107         68
  14.5293         74
  14.5479         78
  14.5664         81
  14.5850         68
  14.6036         54
  14.6222         54
  14.6407         67
  14.6593         59
  14.6779         62
  14.6965         64
  14.7150         68
  14.7336         68
  14.7522         54
  14.7708         49
  14.7893         58
  14.8079         54
  14.8265         63
  14.8451         71
  14.8636         52
  14.8822         47
  14.9008         59
  14.9194         55
  14.9379         56
  14.9565         52
  14.9751         58
  14.9937         57
  15.0122         50
  15.0308         57
  15.0494         57
  15.0680         47
  15.0866         70
  15.1051         57
  15.1237         58
  15.1423         63
  15.1609         61
  15.1794         50
  15.1980         68
  15.2166         58
  15.2352         45
  15.2537         53
  15.2723         56
  15.2909         64
  15.3095         53
  15.3280         50
  15.3466         56
  15.3652         64
  15.3838         50
  15.4023         65
  15.4209         75
  15.4395         40
  15.4581         46
  15.4766         47
  15.4952         67
  15.5138         60
  15.5324         58
  15.5509         56
  15.5695         65
  15.5881         53
  15.6067         66
  15.6252         50
  15.6438         61
  15.6624         63
  15.6810         62
  15.6995         59
  15.7181         58
  15.7367         62
  15.7553         54
  15.7738         61
  15.7924         47
  15.8110         64
  15.8296         74
  15.8482         73
  15.8667         61
  15.8853         59
  15.9039         68
  15.9225         61
  15.9410         64
  15.9596         71
  15.9782         54
  15.9968         65
  16.0153         54
  16.0339         52
  16.0525         64
  16.0711         46
  16.0896         53
  16.1082         62
  16.1268         67
  16.1454         50
  16.1639         59
  16.1825         60
  16.2011         56
  16.2197         64
  16.2382         57
  16.2568         53
  16.2754         59
  16.2940         56
  16.3125         47
  16.3311         60
  16.3497         66
  16.3683         60
  16.3868         54
  16.4054         55
  16.4240         64
  16.4426         58
  16.4611         64
  16.4797         64
  16.4983         55
  16.5169         56
  16.5354         75
  16.5540         75
  16.5726         64
  16.5912         63
  16.6097         59
  16.6283         58
  16.6469         63
  16.6655         60
  16.6841         57
  16.7026         60
  16.7212         47
  16.7398         55
  16.7584         55
  16.7769         61
  16.7955         62
  16.8141         58
  16.8327         56
  16.8512         66
  16.8698         40
  16.8884         57
  16.9070         60
  16.9255         60
  16.9441         49
  16.9627         57
  16.9813         68
  16.9998         59
  17.0184         71
  17.0370         62
  17.0556         50
  17.0741         44
  17.0927         79
  17.1113         68
  17.1299         76
  17.1484         52
  17.1670         54
  17.1856         72
  17.2042         49
  17.2227         63
  17.2413         62
  17.2599         63
  17.2785         54
  17.2970         59
  17.3156         60
  17.3342         61
  17.3528         60
  17.3713         58
  17.3899         59
  17.4085         55
  17.4271         53
  17.4457         65
  17.4642         72
  17.4828         67
  17.5014         69
  17.5200         57
  17.5385         68
  17.5571         56
  17.5757         68
  17.5943         67
  17.6128         70
  17.6314         63
  17.6500         67
  17.6686         44
  17.6871         58
  17.7057         56
  17.7243         57
  17.7429         53
  17.7614         69
  17.7800         56
  17.7986         59
  17.8172         66
  17.8357         53
  17.8543         55
  17.8729         54
  17.8915         50
  17.9100         56
  17.9286         42
  17.9472         60
  17.9658         57
  17.9843         58
  18.0029         59
  18.0215         56
  18.0401         73
  18.0586         52
  18.0772         52
  18.0958         57
  18.1144         61
  18.1329         57
  18.1515         59
  18.1701         66
  18.1887         64
  18.2073         61
  18.2258         78
  18.2444         55
  18.2630         59
  18.2816         57
  18.3001         61
  18.3187         51
  18.3373         57
  18.3559         60
  18.3744         52
  18.3930         57
  18.4116         59
  18.4302         52
  18.4487         71
  18.4673         53
  18.4859         54
  18.5045         52
  18.5230         65
  18.5416         67
  18.5602         67
  18.5788         70
  18.5973         63
  18.6159         62
  18.6345         55
  18.6531         63
  18.6716         55
  18.6902         65
  18.7088         60
  18.7274         58
  18.7459         79
  18.7645         59
  18.7831         69
  18.8017         61
  18.8202         75
  18.8388         63
  18.8574         57
  18.8760         58
  18.8945         62
  18.9131         53
  18.9317         59
  18.9503         66
  18.9689         62
  18.9874         57
  19.0060         57
  19.0246         71
  19.0432         66
  19.0617         65
  19.0803         61
  19.0989         69
  19.1175         55
  19.1360         88
  19.1546         52
  19.1732         71
  19.1918         65
  19.2103         63
  19.2289         83
  19.2475         73
  19.2661         72
  19.2846         52
  19.3032         70
  19.3218         50
  19.3404         58
  19.3589         63
  19.3775         61
  19.3961         57
  19.4147         68
  19.4332         61
  19.4518         70
  19.4704         61
  19.4890         65
  19.5075         61
  19.5261         65
  19.5447         56
  19.5633         58
  19.5818         53
  19.6004         64
  19.6190         74
  19.6376         64
  19.6561         63
  19.6747         64
  19.6933         55
  19.7119         73
  19.7305         64
  19.7490         56
  19.7676         61
  19.7862         65
  19.8048         65
  19.8233         64
  19.8419         70
  19.8605         68
  19.8791         58
  19.8976         64
  19.9162         52
  19.9348         50
  19.9534         55
  19.9719         56
  19.9905         74
  20.0091         56
  20.0277         73
  20.0462         59
  20.0648         58
  20.0834         64
  20.1020         72
  20.1205         74
  20.1391         70
  20.1577         56
  20.1763         56
  20.1948         63
  20.2134         72
  20.2320         82
  20.2506         62
  20.2691         56
  20.2877         60
  20.3063         54
  20.3249         71
  20.3434         84
  20.3620         68
  20.3806         53
  20.3992         58
  20.4177         59
  20.4363         57
  20.4549         76
  20.4735         77
  20.4921         74
  20.5106         73
  20.5292         61
  20.5478         85
  20.5664         71
  20.5849         66
  20.6035         65
  20.6221         67
  20.6407         85
  20.6592         58
  20.6778         67
  20.6964         63
  20.7150         72
  20.7335         76
  20.7521         60
  20.7707         69
  20.7893         80
  20.8078         66
  20.8264         63
  20.8450         61
  20.8636         72
  20.8821         72
  20.9007         78
  20.9193         65
  20.9379         92
  20.9564         80
  20.9750         91
  20.9936         76
  21.0122         56
  21.0307         80
  21.0493         87
  21.0679         69
  21.0865         87
  21.1050         80
  21.1236         90
  21.1422         81
  21.1608         80
  21.1793         92
  21.1979         92
  21.2165        108
  21.2351        120
  21.2537        111
  21.2722        101
  21.2908        108
  21.3094        121
  21.3280        146
  21.3465        187
  21.3651        195
  21.3837        151
  21.4023        137
  21.4208        121
  21.4394         85
  21.4580         76
  21.4766         76
  21.4951         83
  21.5137         75
  21.5323         85
  21.5509         71
  21.5694         64
  21.5880         73
  21.6066         67
  21.6252         70
  21.6437         58
  21.6623         70
  21.6809         85
  21.6995         72
  21.7180         69
  21.7366         66
  21.7552         76
  21.7738         80
  21.7923         76
  21.8109         75
  21.8295         60
  21.8481         57
  21.8666         66
  21.8852         77
  21.9038         68
  21.9224         86
  21.9409         70
  21.9595         47
  21.9781         66
  21.9967         57
  22.0152         53
  22.0338         64
  22.0524         74
  22.0710         72
  22.0896         70
  22.1081         79
  22.1267         69
  22.1453         64
  22.1639         80
  22.1824         74
  22.2010         69
  22.2196         80
  22.2382         75
  22.2567         77
  22.2753         61
  22.2939         78
  22.3125         71
  22.3310         75
  22.3496         70
  22.3682         72
  22.3868         72
  22.4053         62
  22.4239         73
  22.4425         73
  22.4611         64
  22.4796         70
  22.4982         81
  22.5168         71
  22.5354         70
  22.5539         68
  22.5725         68
  22.5911         70
  22.6097         68
  22.6282         72
  22.6468         73
  22.6654         78
  22.6840         73
  22.7025         88
  22.7211         85
  22.7397         92
  22.7583         57
  22.7768         83
  22.7954         75
  22.8140         78
  22.8326         71
  22.8512         73
  22.8697         64
  22.8883         75
  22.9069         63
  22.9255         54
  22.9440         90
  22.9626         77
  22.9812         71
  22.9998         78
  23.0183         79
  23.0369         60
  23.0555         77
  23.0741         62
  23.0926         79
  23.1112         65
  23.1298         75
  23.1484         52
  23.1669         71
  23.1855         76
  23.2041         66
  23.2227         69
  23.2412         87
  23.2598         63
  23.2784         82
  23.2970         57
  23.3155         84
  23.3341         73
  23.3527         82
  23.3713         86
  23.3898         95
  23.4084         79
  23.4270         74
  23.4456         80
  23.4641         65
  23.4827         66
  23.5013         71
  23.5199         83
  23.5384         77
  23.5570         69
  23.5756         70
  23.5942         66
  23.6128         82
  23.6313         81
  23.6499         87
  23.6685         71
  23.6871         83
  23.7056         73
  23.7242         79
  23.7428         68
  23.7614         72
  23.7799         79
  23.7985         67
  23.8171         76
  23.8357         64
  23.8542         73
  23.8728         87
  23.8914         80
  23.9100         92
  23.9285         64
  23.9471         66
  23.9657         83
  23.9843         75
  24.0028         86
  24.0214         76
  24.0400         69
  24.0586         81
  24.0771         82
  24.0957         71
  24.1143         72
  24.1329         54
  24.1514         74
  24.1700         71
  24.1886         88
  24.2072         78
  24.2257         61
  24.2443         79
  24.2629         84
  24.2815        103
  24.3000         85
  24.3186         93
  24.3372         73
  24.3558         89
  24.3744         80
  24.3929         83
  24.4115         70
  24.4301         77
  24.4487         73
  24.4672         81
  24.4858         79
  24.5044         58
  24.5230         74
  24.5415         64
  24.5601         80
  24.5787         66
  24.5973         58
  24.6158         74
  24.6344         63
  24.6530         75
  24.6716         80
  24.6901         61
  24.7087         70
  24.7273         76
  24.7459         67
  24.7644         65
  24.7830         83
  24.8016         74
  24.8202         76
  24.8387         81
  24.8573         73
  24.8759         79
  24.8945         73
  24.9130         66
  24.9316         78
  24.9502         78
  24.9688         83
  24.9873         84
  25.0059         80
  25.0245         76
  25.0431         72
  25.0616         80
  25.0802         65
  25.0988         85
  25.1174         60
  25.1360         55
  25.1545         84
  25.1731         63
  25.1917         89
  25.2103         75
  25.2288         57
  25.2474         62
  25.2660         65
  25.2846         67
  25.3031         69
  25.3217         79
  25.3403         66
  25.3589         59
  25.3774         68
  25.3960         67
  25.4146         72
  25.4332         86
  25.4517         74
  25.4703         74
  25.4889         65
  25.5075         56
  25.5260         76
  25.5446         72
  25.5632         65
  25.5818         59
  25.6003         69
  25.6189         86
  25.6375         77
  25.6561         63
  25.6746         79
  25.6932         85
  25.7118         61
  25.7304         93
  25.7489         78
  25.7675         68
  25.7861         67
  25.8047         79
  25.8232         82
  25.8418         82
  25.8604         60
  25.8790         67
  25.8976         79
  25.9161         66
  25.9347         61
  25.9533         69
  25.9719         75
  25.9904         60
  26.0090         73
  26.0276         70
  26.0462         70
  26.0647         67
  26.0833         61
  26.1019         62
  26.1205         84
  26.1390         86
  26.1576         73
  26.1762         73
  26.1948         71
  26.2133         56
  26.2319         65
  26.2505         78
  26.2691         79
  26.2876         74
  26.3062         78
  26.3248         64
  26.3434         69
  26.3619         79
  26.3805         85
  26.3991         85
  26.4177         66
  26.4362         72
  26.4548         78
  26.4734         62
  26.4920         72
  26.5105         67
  26.5291         53
  26.5477         58
  26.5663         71
  26.5848         78
  26.6034         74
  26.6220         56
  26.6406         54
  26.6591         66
  26.6777         63
  26.6963         75
  26.7149         71
  26.7335         74
  26.7520         75
  26.7706         71
  26.7892         64
  26.8078         73
  26.8263         72
  26.8449         73
  26.8635         72
  26.8821         65
  26.9006         71
  26.9192         81
  26.9378         70
  26.9564         67
  26.9749         67
  26.9935         78
  27.0121         81
  27.0307         62
  27.0492         65
  27.0678         72
  27.0864         66
  27.1050         86
  27.1235         72
  27.1421         74
  27.1607         77
  27.1793         91
  27.1978         69
  27.2164         85
  27.2350        101
  27.2536         79
  27.2721         71
  27.2907         54
  27.3093         78
  27.3279         81
  27.3464         75
  27.3650         65
  27.3836         72
  27.4022         59
  27.4207         59
  27.4393         67
  27.4579         55
  27.4765         60
  27.4951         61
  27.5136         64
  27.5322         63
  27.5508         68
  27.5694         44
  27.5879         70
  27.6065         68
  27.6251         65
  27.6437         61
  27.6622         73
  27.6808         91
  27.6994         66
  27.7180         70
  27.7365         62
  27.7551         55
  27.7737         63
  27.7923         65
  27.8108         72
  27.8294         63
  27.8480         59
  27.8666         73
  27.8851         71
  27.9037         58
  27.9223         83
  27.9409         57
  27.9594         61
  27.9780         73
  27.9966         57
  28.0152         69
  28.0337         69
  28.0523         62
  28.0709         64
  28.0895         53
  28.1080         73
  28.1266         73
  28.1452         75
  28.1638         61
  28.1823         62
  28.2009         59
  28.2195         67
  28.2381         66
  28.2567         77
  28.2752         62
  28.2938         58
  28.3124         53
  28.3310         50
  28.3495         69
  28.3681         60
  28.3867         64
  28.4053         51
  28.4238         68
  28.4424         55
  28.4610         61
  28.4796         62
  28.4981         52
  28.5167         72
  28.5353         60
  28.5539         51
  28.5724         71
  28.5910         62
  28.6096         64
  28.6282         67
  28.6467         66
  28.6653         58
  28.6839         52
  28.7025         56
  28.7210         56
  28.7396         59
  28.7582         57
  28.7768         65
  28.7953         72
  28.8139         62
  28.8325         49
  28.8511         70
  28.8696         64
  28.8882         59
  28.9068         58
  28.9254         61
  28.9439         49
  28.9625         50
  28.9811         57
  28.9997         68
  29.0183         61
  29.0368         64
  29.0554         57
  29.0740         62
  29.0926         55
  29.1111         62
  29.1297         70
  29.1483         58
  29.1669         56
  29.1854         57
  29.2040         58
  29.2226         68
  29.2412         59
  29.2597         50
  29.2783         49
  29.2969         58
  29.3155         57
  29.3340         59
  29.3526         74
  29.3712         63
  29.3898         56
  29.4083         66
  29.4269         55
  29.4455         82
  29.4641         63
  29.4826         56
  29.5012         40
  29.5198         68
  29.5384         65
  29.5569         62
  29.5755         56
  29.5941         54
  29.6127         62
  29.6312         55
  29.6498         68
  29.6684         73
  29.6870         59
  29.7055         62
  29.7241         48
  29.7427         48
  29.7613         51
  29.7799         48
  29.7984         63
  29.8170         60
  29.8356         57
  29.8542         58
  29.8727         68
  29.8913         56
  29.9099         75
  29.9285         51
  29.9470         46
  29.9656         57
  29.9842         59
  30.0028         56
  30.0213         66
  30.0399         53
  30.0585         71
  30.0771         51
  30.0956         55
  30.1142         51
  30.1328         53
  30.1514         63
  30.1699         68
  30.1885         50
  30.2071         73
  30.2257         84
  30.2442         62
  30.2628         45
  30.2814         74
  30.3000         56
  30.3185         60
  30.3371         65
  30.3557         77
  30.3743        102
  30.3928        103
  30.4114         97
  30.4300         87
  30.4486         85
  30.4671         97
  30.4857         68
  30.5043         65
  30.5229         58
  30.5415         55
  30.5600         61
  30.5786         71
  30.5972         55
  30.6158         52
  30.6343         60
  30.6529         70
  30.6715         47
  30.6901         61
  30.7086         58
  30.7272         72
  30.7458         53
  30.7644         49
  30.7829         53
  30.8015         44
  30.8201         48
  30.8387         58
  30.8572         50
  30.8758         59
  30.8944         64
  30.9130         50
  30.9315         61
  30.9501         56
  30.9687         59
  30.9873         46
  31.0058         55
  31.0244         62
  31.0430         52
  31.0616         62
  31.0801         45
  31.0987         56
  31.1173         50
  31.1359         49
  31.1544         63
  31.1730         50
  31.1916         49
  31.2102         53
  31.2287         61
  31.2473         51
  31.2659         49
  31.2845         59
  31.3030         50
  31.3216         44
  31.3402         51
  31.3588         55
  31.3774         50
  31.3959         46
  31.4145         49
  31.4331         65
  31.4517         42
  31.4702         53
  31.4888         53
  31.5074         38
  31.5260         46
  31.5445         52
  31.5631         49
  31.5817         67
  31.6003         49
  31.6188         50
  31.6374         56
  31.6560         53
  31.6746         48
  31.6931         45
  31.7117         55
  31.7303         41
  31.7489         42
  31.7674         41
  31.7860         52
  31.8046         65
  31.8232         46
  31.8417         53
  31.8603         55
  31.8789         38
  31.8975         47
  31.9160         41
  31.9346         52
  31.9532         51
  31.9718         45
  31.9903         42
  32.0089         53
  32.0275         48
  32.0461         39
  32.0646         48
  32.0832         51
  32.1018         60
  32.1204         58
  32.1390         43
  32.1575         48
  32.1761         43
  32.1947         42
  32.2133         46
  32.2318         37
  32.2504         42
  32.2690         53
  32.2876         37
  32.3061         45
  32.3247         55
  32.3433         49
  32.3619         58
  32.3804         41
  32.3990         49
  32.4176         53
  32.4362         46
  32.4547         48
  32.4733         69
  32.4919         50
  32.5105         63
  32.5290         62
  32.5476         53
  32.5662         60
  32.5848         50
  32.6033         46
  32.6219         57
  32.6405         57
  32.6591         40
  32.6776         46
  32.6962         50
  32.7148         36
  32.7334         35
  32.7519         41
  32.7705         51
  32.7891         46
  32.8077         32
  32.8262         49
  32.8448         50
  32.8634         40
  32.8820         45
  32.9006         34
  32.9191         40
  32.9377         52
  32.9563         47
  32.9749         46
  32.9934         50
  33.0120         44
  33.0306         42
  33.0492         44
  33.0677         48
  33.0863         35
  33.1049         48
  33.1235         44
  33.1420         35
  33.1606         57
  33.1792         37
  33.1978         43
  33.2163         46
  33.2349         29
  33.2535         41
  33.2721         46
  33.2906         34
  33.3092         45
  33.3278         42
  33.3464         39
  33.3649         34
  33.3835         55
  33.4021         53
  33.4207         50
  33.4392         40
  33.4578         57
  33.4764         43
  33.4950         46
  33.5135         45
  33.5321         43
  33.5507         51
  33.5693         30
  33.5878         39
  33.6064         53
  33.6250         46
  33.6436         40
  33.6622         39
  33.6807         57
  33.6993         45
  33.7179         52
  33.7365         52
  33.7550         45
  33.7736         45
  33.7922         38
  33.8108         42
  33.8293         44
  33.8479         44
  33.8665         37
  33.8851         42
  33.9036         38
  33.9222         51
  33.9408         49
  33.9594         45
  33.9779         44
  33.9965         41
  34.0151         38
  34.0337         58
  34.0522         39
  34.0708         40
  34.0894         38
  34.1080         32
  34.1265         38
  34.1451         41
  34.1637         36
  34.1823         38
  34.2008         54
  34.2194         54
  34.2380         51
  34.2566         54
  34.2751         36
  34.2937         41
  34.3123         39
  34.3309         30
  34.3494         39
  34.3680         41
  34.3866         45
  34.4052         46
  34.4238         50
  34.4423         44
  34.4609         36
  34.4795         51
  34.4981         32
  34.5166         47
  34.5352         38
  34.5538         42
  34.5724         44
  34.5909         39
  34.6095         54
  34.6281         49
  34.6467         51
  34.6652         61
  34.6838         45
  34.7024         42
  34.7210         63
  34.7395         48
  34.7581         67
  34.7767         50
  34.7953         46
  34.8138         42
  34.8324         63
  34.8510         55
  34.8696         63
  34.8881         53
  34.9067         45
  34.9253         46
  34.9439         41
  34.9624         38
  34.9810         39
  34.9996         41
  35.0182         38
  35.0367         36
  35.0553         44
  35.0739         34
  35.0925         32
  35.1110         32
  35.1296         32
  35.1482         42
  35.1668         32
  35.1854         34
  35.2039         35
  35.2225         48
  35.2411         40
  35.2597         35
  35.2782         51
  35.2968         26
  35.3154         32
  35.3340         40
  35.3525         34
  35.3711         28
  35.3897         37
  35.4083         33
  35.4268         42
  35.4454         39
  35.4640         29
  35.4826         41
  35.5011         27
  35.5197         40
  35.5383         42
  35.5569         42
  35.5754         34
  35.5940         51
  35.6126         26
  35.6312         41
  35.6497         36
  35.6683         33
  35.6869         41
  35.7055         33
  35.7240         46
  35.7426         45
  35.7612         34
  35.7798         41
  35.7983         46
  35.8169         29
  35.8355         31
  35.8541         35
  35.8726         40
  35.8912         31
  35.9098         37
  35.9284         33
  35.9469         43
  35.9655         35
  35.9841         32
  36.0027         27
  36.0213         38
  36.0398         36
  36.0584         32
  36.0770         36
  36.0956         33
  36.1141         27
  36.1327         28
  36.1513         35
  36.1699         39
  36.1884         30
  36.2070         37
  36.2256         24
  36.2442         44
  36.2627         39
  36.2813         38
  36.2999         31
  36.3185         32
  36.3370         26
  36.3556         29
  36.3742         28
  36.3928         33
  36.4113         36
  36.4299         24
  36.4485         36
  36.4671         29
  36.4856         27
  36.5042         37
  36.5228         35
  36.5414         33
  36.5599         38
  36.5785         36
  36.5971         34
  36.6157         29
  36.6342         29
  36.6528         24
  36.6714         39
  36.6900         29
  36.7085         26
  36.7271         41
  36.7457         36
  36.7643         40
  36.7829         32
  36.8014         39
  36.8200         27
  36.8386         37
  36.8572         35
  36.8757         35
  36.8943         31
  36.9129         34
  36.9315         28
  36.9500         21
  36.9686         38
  36.9872         37
  37.0058         32
  37.0243         38
  37.0429         30
  37.0615         26
  37.0801         30
  37.0986         32
  37.1172         35
  37.1358         26
  37.1544         27
  37.1729         31
  37.1915         36
  37.2101         31
  37.2287         26
  37.2472         30
  37.2658         25
  37.2844         29
  37.3030         24
  37.3215         27
  37.3401         25
  37.3587         33
  37.3773         36
  37.3958         51
  37.4144         47
  37.4330         52
  37.4516         56
  37.4701         49
  37.4887         43
  37.5073         36
  37.5259         44
  37.5445         45
  37.5630         34
  37.5816         29
  37.6002         28
  37.6188         37
  37.6373         37
  37.6559         31
  37.6745         39
  37.6931         33
  37.7116         31
  37.7302         28
  37.7488         37
  37.7674         35
  37.7859         24
  37.8045         33
  37.8231         30
  37.8417         25
  37.8602         29
  37.8788         38
  37.8974         19
  37.9160         34
  37.9345         29
  37.9531         34
  37.9717         31
  37.9903         35
  38.0088         28
  38.0274         32
  38.0460         23
  38.0646         32
  38.0831         24
  38.1017         27
  38.1203         30
  38.1389         29
  38.1574         33
  38.1760         27
  38.1946         17
  38.2132         25
  38.2317         22
  38.2503         31
  38.2689         23
  38.2875         27
  38.3061         53
  38.3246         27
  38.3432         34
  38.3618         39
  38.3804         31
  38.3989         25
  38.4175         41
  38.4361         29
  38.4547         24
  38.4732         30
  38.4918         27
  38.5104         40
  38.5290         32
  38.5475         40
  38.5661         23
  38.5847         38
  38.6033         25
  38.6218         31
  38.6404         31
  38.6590         40
  38.6776         32
  38.6961         37
  38.7147         24
  38.7333         37
  38.7519         39
  38.7704         37
  38.7890         26
  38.8076         30
  38.8262         29
  38.8447         27
  38.8633         35
  38.8819         31
  38.9005         38
  38.9190         30
  38.9376         27
  38.9562         33
  38.9748         26
  38.9933         29
  39.0119         33
  39.0305         28
  39.0491         17
  39.0677         36
  39.0862         29
  39.1048         33
  39.1234         23
  39.1420         30
  39.1605         35
  39.1791         30
  39.1977         26
  39.2163         20
  39.2348         43
  39.2534         19
  39.2720         27
  39.2906         36
  39.3091         39
  39.3277         34
  39.3463         28
  39.3649         43
  39.3834         21
  39.4020         33
  39.4206         42
  39.4392         30
  39.4577         34
  39.4763         28
  39.4949         23
  39.5135         32
  39.5320         31
  39.5506         23
  39.5692         24
  39.5878         30
  39.6063         42
  39.6249         31
  39.6435         26
  39.6621         28
  39.6806         30
  39.6992         24
  39.7178         25
  39.7364         37
  39.7549         31
  39.7735         31
  39.7921         30
  39.8107         27
  39.8293         23
  39.8478         27
  39.8664         36
  39.8850         30
  39.9036         25
  39.9221         24
  39.9407         36
  39.9593         24
  39.9779         34
  39.9964         26
  40.0150         24
  40.0336         23
  40.0522         27
  40.0707         32
  40.0893         33
  40.1079         29
  40.1265         20
  40.1450         27
  40.1636         30
  40.1822         31
  40.2008         30
  40.2193         31
  40.2379         25
  40.2565         27
  40.2751         34
  40.2936         25
  40.3122         24
  40.3308         18
  40.3494         34
  40.3679         34
  40.3865         26
  40.4051         32
  40.4237         37
  40.4422         42
  40.4608         30
  40.4794         17
  40.4980         23
  40.5165         26
  40.5351         22
  40.5537         23
  40.5723         24
  40.5908         28
  40.6094         26
  40.6280         25
  40.6466         25
  40.6652         24
  40.6837         28
  40.7023         23
  40.7209         18
  40.7395         27
  40.7580         22
  40.7766         32
  40.7952         21
  40.8138         29
  40.8323         23
  40.8509         18
  40.8695         37
  40.8881         27
  40.9066         40
  40.9252         30
  40.9438         44
  40.9624         41
  40.9809         26
  40.9995         32
  41.0181         32
  41.0367         29
  41.0552         40
  41.0738         31
  41.0924         27
  41.1110         34
  41.1295         28
  41.1481         21
  41.1667         25
  41.1853         30
  41.2038         34
  41.2224         25
  41.2410         32
  41.2596         27
  41.2781         31
  41.2967         30
  41.3153         32
  41.3339         28
  41.3524         37
  41.3710         33
  41.3896         28
  41.4082         19
  41.4268         23
  41.4453         37
  41.4639         22
  41.4825         34
  41.5011         24
  41.5196         32
  41.5382         30
  41.5568         29
  41.5754         32
  41.5939         29
  41.6125         31
  41.6311         28
  41.6497         35
  41.6682         33
  41.6868         25
  41.7054         30
  41.7240         44
  41.7425         20
  41.7611         32
  41.7797         26
  41.7983         26
  41.8168         26
  41.8354         34
  41.8540         38
  41.8726         30
  41.8911         40
  41.9097         25
  41.9283         26
  41.9469         25
  41.9654         26
  41.9840         21
  42.0026         29
  42.0212         22
  42.0397         21
  42.0583         30
  42.0769         29
  42.0955         23
  42.1140         23
  42.1326         28
  42.1512         33
  42.1698         30
  42.1884         20
  42.2069         30
  42.2255         34
  42.2441         16
  42.2627         26
  42.2812         35
  42.2998         30
  42.3184         22
  42.3370         20
  42.3555         28
  42.3741         26
  42.3927         23
  42.4113         29
  42.4298         24
  42.4484         30
  42.4670         19
  42.4856         26
  42.5041         24
  42.5227         20
  42.5413         27
  42.5599         23
  42.5784         35
  42.5970         23
  42.6156         32
  42.6342         30
  42.6527         31
  42.6713         25
  42.6899         23
  42.7085         29
  42.7270         27
  42.7456         26
  42.7642         25
  42.7828         18
  42.8013         33
  42.8199         35
  42.8385         26
  42.8571         30
  42.8756         24
  42.8942         28
  42.9128         23
  42.9314         24
  42.9500         28
  42.9685         27
  42.9871         25
  43.0057         35
  43.0243         25
  43.0428         27
  43.0614         25
  43.0800         21
  43.0986         26
  43.1171         17
  43.1357         26
  43.1543         26
  43.1729         29
  43.1914         31
  43.2100         32
  43.2286         30
  43.2472         27
  43.2657         16
  43.2843         44
  43.3029         32
  43.3215         31
  43.3400         37
  43.3586         34
  43.3772         22
  43.3958         35
  43.4143         26
  43.4329         31
  43.4515         32
  43.4701         41
  43.4886         57
  43.5072         51
  43.5258         37
  43.5444         38
  43.5629         23
  43.5815         22
  43.6001         43
  43.6187         40
  43.6372         46
  43.6558         37
  43.6744         33
  43.6930         30
  43.7116         37
  43.7301         36
  43.7487         25
  43.7673         27
  43.7859         21
  43.8044         29
  43.8230         33
  43.8416         25
  43.8602         25
  43.8787         24
  43.8973         27
  43.9159         21
  43.9345         27
  43.9530         30
  43.9716         20
  43.9902         38
  44.0088         25
  44.0273         32
  44.0459         20
  44.0645         30
  44.0831         25
  44.1016         31
  44.1202         21
  44.1388         23
  44.1574         26
  44.1759         31
  44.1945         27
  44.2131         23
  44.2317         36
  44.2502         31
  44.2688         29
  44.2874         22
  44.3060         29
  44.3245         23
  44.3431         29
  44.3617         26
  44.3803         28
  44.3988         28
  44.4174         30
  44.4360         29
  44.4546         24
  44.4732         27
  44.4917         35
  44.5103         17
  44.5289         25
  44.5475         27
  44.5660         28
  44.5846         24
  44.6032         30
  44.6218         16
  44.6403         30
  44.6589         29
  44.6775         38
  44.6961         34
  44.7146         36
  44.7332         34
  44.7518         22
  44.7704         29
  44.7889         30
  44.8075         32
  44.8261         23
  44.8447         28
  44.8632         27
  44.8818         21
  44.9004         36
  44.9190         31
  44.9375         28
  44.9561         21
  44.9747         22
  44.9933         42
  45.0118         24
  45.0304         30
  45.0490         24
  45.0676         29
  45.0861         21
  45.1047         30
  45.1233         20
  45.1419         22
  45.1604         25
  45.1790         28
  45.1976         23
  45.2162         29
  45.2347         27
  45.2533         30
  45.2719         27
  45.2905         16
  45.3091         23
  45.3276         23
  45.3462          6
  45.3648         31
  45.3834         20
  45.4019         25
  45.4205         26
  45.4391         19
  45.4577         19
  45.4762         17
  45.4948         18
  45.5134         29
  45.5320         24
  45.5505         28
  45.5691         31
  45.5877         32
  45.6063         31
  45.6248         31
  45.6434         28
  45.6620         25
  45.6806         35
  45.6991         24
  45.7177         22
  45.7363         26
  45.7549         21
  45.7734         28
  45.7920         26
  45.8106         27
  45.8292         32
  45.8477         18
  45.8663         18
  45.8849         21
  45.9035         31
  45.9220         19
  45.9406         31
  45.9592         29
  45.9778         20
  45.9963         29
  46.0149         23
  46.0335         23
  46.0521         28
  46.0707         19
  46.0892         17
  46.1078         14
  46.1264         28
  46.1450         22
  46.1635         15
  46.1821         22
  46.2007         35
  46.2193         31
  46.2378         25
  46.2564         19
  46.2750         25
  46.2936         20
  46.3121         26
  46.3307         31
  46.3493         19
  46.3679         30
  46.3864         24
  46.4050         31
  46.4236         23
  46.4422         21
  46.4607         23
  46.4793         35
  46.4979         24
  46.5165         17
  46.5350         27
  46.5536         22
  46.5722         13
  46.5908         30
  46.6093         20
  46.6279         31
  46.6465         28
  46.6651         27
  46.6836         33
  46.7022         16
  46.7208         21
  46.7394         17
  46.7579         18
  46.7765         26
  46.7951         19
  46.8137         19
  46.8323         18
  46.8508         21
  46.8694         25
  46.8880         35
  46.9066         21
  46.9251         14
  46.9437         24
  46.9623         19
  46.9809         24
  46.9994         21
  47.0180         23
  47.0366         23
  47.0552         27
  47.0737         20
  47.0923         19
  47.1109         33
  47.1295         31
  47.1480         16
  47.1666         22
  47.1852         31
  47.2038         27
  47.2223         33
  47.2409         22
  47.2595         24
  47.2781         21
  47.2966         20
  47.3152         24
  47.3338         22
  47.3524         27
  47.3709         27
  47.3895         19
  47.4081         20
  47.4267         25
  47.4452         21
  47.4638         19
  47.4824         23
  47.5010         25
  47.5195         26
  47.5381         23
  47.5567         29
  47.5753         28
  47.5939         24
  47.6124         24
  47.6310         17
  47.6496         27
  47.6682         20
  47.6867         30
  47.7053         30
  47.7239         21
  47.7425         21
  47.7610         17
  47.7796         19
  47.7982         25
  47.8168         22
  47.8353         23
  47.8539         22
  47.8725         26
  47.8911         23
  47.9096         15
  47.9282         24
  47.9468         19
  47.9654         15
  47.9839         25
  48.0025         20
  48.0211         28
  48.0397         25
  48.0582         23
  48.0768         34
  48.0954         16
  48.1140         19
  48.1325         26
  48.1511         31
  48.1697         26
  48.1883         22
  48.2068         15
  48.2254         21
  48.2440         17
  48.2626         30
  48.2811         26
  48.2997         31
  48.3183         18
  48.3369         28
  48.3555         19
  48.3740         19
  48.3926         17
  48.4112         19
  48.4298         26
  48.4483         25
  48.4669         31
  48.4855         25
  48.5041         22
  48.5226         20
  48.5412         20
  48.5598         19
  48.5784         24
  48.5969         21
  48.6155         26
  48.6341         26
  48.6527         21
  48.6712         23
  48.6898         17
  48.7084         23
  48.7270         16
  48.7455         22
  48.7641         37
  48.7827         16
  48.8013         21
  48.8198         18
  48.8384         26
  48.8570         18
  48.8756         25
  48.8941         27
  48.9127         31
  48.9313         24
  48.9499         50
  48.9684         60
  48.9870         33
  49.0056         28
  49.0242         27
  49.0427         34
  49.0613         29
  49.0799         29
  49.0985         36
  49.1171         24
  49.1356         33
  49.1542         22
  49.1728         25
  49.1914         17
  49.2099         20
  49.2285         21
  49.2471         15
  49.2657         28
  49.2842         25
  49.3028         16
  49.3214         19
  49.3400         30
  49.3585         27
  49.3771         14
  49.3957         20
  49.4143         20
  49.4328         12
  49.4514         21
  49.4700         21
  49.4886         22
  49.5071         21
  49.5257         27
  49.5443         27
  49.5629         23
  49.5814         28
  49.6000         21
  49.6186         20
  49.6372         28
  49.6557         22
  49.6743         20
  49.6929         24
  49.7115         18
  49.7300         28
  49.7486         27
  49.7672         16
  49.7858         18
  49.8043         21
  49.8229         13
  49.8415         14
  49.8601         19
  49.8786         26
  49.8972         28
  49.9158         23
  49.9344         32
  49.9530         20
  49.9715         19
  49.9901         25
  50.0087         18
  50.0273         31
  50.0458         30
  50.0644         30
  50.0830         23
  50.1016         17
  50.1201         18
  50.1387         25
  50.1573         22
  50.1759         21
  50.1944         25
  50.2130         25
  50.2316         20
  50.2502         26
  50.2687         20
  50.2873         26
  50.3059         18
  50.3245         23
  50.3430         25
  50.3616         22
  50.3802         20
  50.3988         25
  50.4173         19
  50.4359         19
  50.4545         26
  50.4731         21
  50.4916         20
  50.5102         22
  50.5288         31
  50.5474         20
  50.5659         30
  50.5845         15
  50.6031         25
  50.6217         28
  50.6402         24
  50.6588         34
  50.6774         17
  50.6960         23
  50.7146         16
  50.7331         24
  50.7517         20
  50.7703         20
  50.7889         24
  50.8074         17
  50.8260         19
  50.8446         19
  50.8632         21
  50.8817         22
  50.9003         23
  50.9189         24
  50.9375         26
  50.9560         29
  50.9746         23
  50.9932         24
  51.0118         12
  51.0303         15
  51.0489         23
  51.0675         25
  51.0861         13
  51.1046         27
  51.1232         28
  51.1418         31
  51.1604         21
  51.1789         22
  51.1975         23
  51.2161         16
  51.2347         23
  51.2532         32
  51.2718         28
  51.2904         17
  51.3090         18
  51.3275         20
  51.3461         23
  51.3647         28
  51.3833         23
  51.4018         27
  51.4204         20
  51.4390         19
  51.4576         24
  51.4762         35
  51.4947         21
  51.5133         28
  51.5319         26
  51.5505         22
  51.5690         23
  51.5876         27
  51.6062         25
  51.6248         20
  51.6433         14
  51.6619         27
  51.6805         24
  51.6991         26
  51.7176         26
  51.7362         17
  51.7548         27
  51.7734         23
  51.7919         24
  51.8105         19
  51.8291         26
  51.8477         20
  51.8662         20
  51.8848         19
  51.9034         25
  51.9220         24
  51.9405         21
  51.9591         22
  51.9777         29
  51.9963         13
  52.0148         26
  52.0334         19
  52.0520         28
  52.0706         25
  52.0891         18
  52.1077         19
  52.1263         30
  52.1449         16
  52.1634         19
  52.1820         20
  52.2006         16
  52.2192         26
  52.2378         27
  52.2563         20
  52.2749         19
  52.2935         28
  52.3121         22
  52.3306         19
  52.3492         21
  52.3678         31
  52.3864         18
  52.4049         19
  52.4235         24
  52.4421         21
  52.4607         25
  52.4792         24
  52.4978         17
  52.5164         20
  52.5350         21
  52.5535         21
  52.5721         34
  52.5907         16
  52.6093         25
  52.6278         24
  52.6464         12
  52.6650         26
  52.6836         18
  52.7021         25
  52.7207         23
  52.7393         19
  52.7579         18
  52.7764         20
  52.7950         20
  52.8136         22
  52.8322         21
  52.8507         25
  52.8693         19
  52.8879         28
  52.9065         14
  52.9250         19
  52.9436         28
  52.9622         30
  52.9808         18
  52.9994         24
  53.0179         27
  53.0365         21
  53.0551         24
  53.0737         18
  53.0922         22
  53.1108         26
  53.1294         25
  53.1480         19
  53.1665         17
  53.1851         16
  53.2037         25
  53.2223         22
  53.2408         19
  53.2594         22
  53.2780         14
  53.2966         17
  53.3151         22
  53.3337         13
  53.3523         22
  53.3709         27
  53.3894         24
  53.4080         23
  53.4266         17
  53.4452         28
  53.4637         18
  53.4823         17
  53.5009         17
  53.5195         25
  53.5380          9
  53.5566         22
  53.5752         20
  53.5938         20
  53.6123         29
  53.6309         23
  53.6495         25
  53.6681         16
  53.6866         21
  53.7052         16
  53.7238         25
  53.7424         25
  53.7610         12
  53.7795         31
  53.7981         23
  53.8167         24
  53.8353         26
  53.8538         21
  53.8724         21
  53.8910         17
  53.9096         22
  53.9281         28
  53.9467         17
  53.9653         35
  53.9839         28
  54.0024         32
  54.0210         26
  54.0396         19
  54.0582         21
  54.0767         21
  54.0953         25
  54.1139         25
  54.1325         30
  54.1510         36
  54.1696         31
  54.1882         23
  54.2068         24
  54.2253         19
  54.2439         16
  54.2625         25
  54.2811         26
  54.2996         14
  54.3182         18
  54.3368         16
  54.3554         22
  54.3739         24
  54.3925         22
  54.4111         24
  54.4297         22
  54.4482         21
  54.4668         23
  54.4854         23
  54.5040         24
  54.5225         13
  54.5411         21
  54.5597         29
  54.5783         21
  54.5969         23
  54.6154         10
  54.6340         20
  54.6526         29
  54.6712         15
  54.6897         23
  54.7083         23
  54.7269         19
  54.7455         18
  54.7640         31
  54.7826         21
  54.8012         18
  54.8198         20
  54.8383         22
  54.8569         17
  54.8755         25
  54.8941         24
  54.9126         26
  54.9312         19
  54.9498         21
  54.9684         27
  54.9869         17
  55.0055         18
  55.0241         23
  55.0427         23
  55.0612         20
  55.0798         16
  55.0984         28
  55.1170         21
  55.1355         17
  55.1541         19
  55.1727         21
  55.1913         20
  55.2098         11
  55.2284         22
  55.2470         15
  55.2656         18
  55.2841         20
  55.3027         18
  55.3213         17
  55.3399         26
  55.3585         24
  55.3770         16
  55.3956         20
  55.4142         15
  55.4328         27
  55.4513         27
  55.4699         22
  55.4885         17
  55.5071         16
  55.5256         20
  55.5442         20
  55.5628         26
  55.5814         21
  55.5999         20
  55.6185         19
  55.6371         18
  55.6557         15
  55.6742         25
  55.6928         25
  55.7114         24
  55.7300         21
  55.7485         21
  55.7671         20
  55.7857         17
  55.8043         20
  55.8228         16
  55.8414         26
  55.8600         23
  55.8786         13
  55.8971         17
  55.9157         19
  55.9343         24
  55.9529         23
  55.9714         24
  55.9900         28
  56.0086         16
  56.0272         31
  56.0457         31
  56.0643         26
  56.0829         20
  56.1015         21
  56.1201         20
  56.1386         24
  56.1572         18
  56.1758         23
  56.1944         17
  56.2129         15
  56.2315         27
  56.2501         15
  56.2687         23
  56.2872         21
  56.3058         16
  56.3244         26
  56.3430         19
  56.3615         20
  56.3801         20
  56.3987         34
  56.4173         17
  56.4358         20
  56.4544         26
  56.4730         17
  56.4916         24
  56.5101         23
  56.5287         15
  56.5473         26
  56.5659         21
  56.5844         15
  56.6030         24
  56.6216         12
  56.6402         15
  56.6587         20
  56.6773         16
  56.6959         15
  56.7145         25
  56.7330         16
  56.7516         12
  56.7702         16
  56.7888         21
  56.8073         27
  56.8259         16
  56.8445         14
  56.8631         18
  56.8817         28
  56.9002         22
  56.9188         20
  56.9374         21
  56.9560         14
  56.9745         25
  56.9931         22
  57.0117         20
  57.0303         29
  57.0488         24
  57.0674         14
  57.0860         19
  57.1046         21
  57.1231         17
  57.1417         22
  57.1603          9
  57.1789         19
  57.1974         24
  57.2160         10
  57.2346         19
  57.2532         22
  57.2717         24
  57.2903         14
  57.3089         20
  57.3275         24
  57.3460         18
  57.3646         14
  57.3832         13
  57.4018         23
  57.4203         21
  57.4389         23
  57.4575         18
  57.4761         25
  57.4946         19
  57.5132         17
  57.5318         26
  57.5504         16
  57.5689         20
  57.5875         22
  57.6061         31
  57.6247         21
  57.6433         22
  57.6618         17
  57.6804         20
  57.6990         26
  57.7176         26
  57.7361         21
  57.7547         23
  57.7733         21
  57.7919         18
  57.8104         18
  57.8290         23
  57.8476         18
  57.8662         22
  57.8847         15
  57.9033         33
  57.9219         22
  57.9405         23
  57.9590         21
  57.9776         17
  57.9962         21
  58.0148         17
  58.0333         28
  58.0519         21
  58.0705         19
  58.0891         29
  58.1076         27
  58.1262         20
  58.1448         22
  58.1634         29
  58.1819         17
  58.2005         25
  58.2191         20
  58.2377         25
  58.2562         18
  58.2748         18
  58.2934         25
  58.3120         17
  58.3305         18
  58.3491         22
  58.3677         18
  58.3863         23
  58.4049         17
  58.4234         17
  58.4420         22
  58.4606         16
  58.4792         18
  58.4977         18
  58.5163         22
  58.5349         18
  58.5535         19
  58.5720         18
  58.5906         18
  58.6092         11
  58.6278         15
  58.6463         20
  58.6649         16
  58.6835         24
  58.7021         17
  58.7206         21
  58.7392         36
  58.7578         14
  58.7764         14
  58.7949         22
  58.8135         14
  58.8321         25
  58.8507         14
  58.8692         27
  58.8878         20
  58.9064         25
  58.9250         19
  58.9435         18
  58.9621         22
  58.9807         22
  58.9993         16
  59.0178         18
  59.0364         16
  59.0550         16
  59.0736         18
  59.0921         18
  59.1107         21
  59.1293         19
  59.1479         25
  59.1664         26
  59.1850         25
  59.2036         27
  59.2222         23
  59.2408         25
  59.2593         25
  59.2779         20
  59.2965         22
  59.3151         21
  59.3336         25
  59.3522         27
  59.3708         16
  59.3894         21
  59.4079         29
  59.4265         16
  59.4451         25
  59.4637         22
  59.4822         13
  59.5008         19
  59.5194         20
  59.5380         17
  59.5565         20
  59.5751         17
  59.5937         23
  59.6123         24
  59.6308         19
  59.6494         17
  59.6680         13
  59.6866         23
  59.7051         26
  59.7237         17
  59.7423         16
  59.7609         13
  59.7794         13
  59.7980         12
  59.8166         21
  59.8352         24
  59.8537         17
  59.8723         25
  59.8909          8
  59.9095         17
  59.9280         22
  59.9466         11
  59.9652         22
  59.9838         29
  60.0024         20
