; (content of file Y:\Sam\Apurva-07-20-2022\puck2\ML_20220720_27_SJD_0_LaB6-1min.raw)
_FILEVERSION = 3
_SAMPLE = ML_20220720_27_SJD_0_LaB6-1min
_+SAMPLE = 
_SITE = USA
_USER = Administrator
_GONIOMETER_CODE = 20
; Goniometer : D8 theta/2theta, stage : Unknown
_ATTACHMENTS_CODE = 0
_GONIOMETER_RADIUS = 200.5
_FIXED_DIVSLIT = 0.6
_FIXED_SAMPLESLIT = 0
_SOLLER_SLITS = 2
_FIXED_DETSLIT = 9.55
_MONOCHROMATOR = 0
; Incident beam monochromator : None
_SOLLER_SLITS_2 = N
_THIN_FILM = N
_BETA_FILTER = Y
_FIXED_ANTISLIT = 5.89
_ANALYZER_CODE = 0
; Received beam analyzer : None
_DATEMEASURED = "25-Jul-2022 18:36:47"
_WL_UNIT = A
_WL1 = 1.5406
_WL2 = 1.54439
_WL3 = 1.39222
_WLRATIO = 0.5
_ANODE = Cu
_V4_INF_CREATOR = XRDWizard
_V4_INF_CREATOR_VERSION = V2.9.0.22
_V4_INF_WIZARD_VERSION = V2.9.0.22
_V4_INF_WIZARD_ADDINS = V2.9.0.22
_V4_INF_WIZARD_DOCTYPE = XRD
_V4_INF_OSUSER = McQueenLab
_V4_INF_USER = Administrator
_V4_INF_SITE = USA
_V4_INF_SAMPLEID = ML_20220720_27_SJD_0_LaB6-1min

; Data for range 1
_DRIVE = COUPLED
_STEPTIME = 4.23
_STEPSIZE = 0.0185756
_STEPMODE = C
_START = 5
_THETA = 2.5
_2THETA = 5
_KHI = 0
_PHI = 0
_X = 0
_Y = 0
_Z = 0
_DETECTOR = 5
; Detector type : Unknown
_DETECTORSLIT = unkn
_AUX1 = 0
_AUX2 = 0
_AUX3 = 0
_TIMESTARTED = 16
_TEMP_RATE = -1
_TEMP_DELAY = -1
_KV = 40
_MA = 40
_RANGE_WL = 1.5406
_3DPLANE = 0
_V4_ADDITIONALDETECTOR = 257
_V4_PSD2THETA = 3.4374
_V4_PSDCHANNEL1 = 0
_V4_PSDAPERTURE = 12.68
_V4_PSDTYPE = 5
_V4_PSDFIXED = 0
_V4_COUNTERS_MASK = 4096
_V4_DRIVES_MASK = 0
_V4_ENCODERS_MASK = 0
_2THETACOUNTS = 1
; 2THETA  PSD
   5.0000         75
   5.0186        102
   5.0372        104
   5.0557        100
   5.0743         92
   5.0929         82
   5.1115         99
   5.1300        100
   5.1486         88
   5.1672         97
   5.1858         87
   5.2043         88
   5.2229         94
   5.2415         76
   5.2601         96
   5.2786         99
   5.2972        100
   5.3158        113
   5.3344         78
   5.3529         96
   5.3715         76
   5.3901         85
   5.4087         86
   5.4272        106
   5.4458         73
   5.4644         91
   5.4830         87
   5.5015         82
   5.5201         90
   5.5387         69
   5.5573         87
   5.5758         90
   5.5944         94
   5.6130         71
   5.6316         96
   5.6501         85
   5.6687         91
   5.6873         80
   5.7059         74
   5.7244         78
   5.7430         77
   5.7616         78
   5.7802         68
   5.7988         73
   5.8173         78
   5.8359         77
   5.8545         71
   5.8731         68
   5.8916         73
   5.9102         68
   5.9288         80
   5.9474         59
   5.9659         80
   5.9845         67
   6.0031         81
   6.0217         64
   6.0402         68
   6.0588         89
   6.0774         87
   6.0960         76
   6.1145         65
   6.1331         62
   6.1517         82
   6.1703         89
   6.1888         59
   6.2074         76
   6.2260         73
   6.2446         90
   6.2631         68
   6.2817         71
   6.3003         74
   6.3189         65
   6.3374         68
   6.3560         60
   6.3746         78
   6.3932         82
   6.4117         76
   6.4303         64
   6.4489         67
   6.4675         74
   6.4860         63
   6.5046         66
   6.5232         88
   6.5418         64
   6.5604         62
   6.5789         68
   6.5975         60
   6.6161         58
   6.6347         60
   6.6532         56
   6.6718         53
   6.6904         56
   6.7090         55
   6.7275         65
   6.7461         72
   6.7647         48
   6.7833         72
   6.8018         70
   6.8204         61
   6.8390         69
   6.8576         64
   6.8761         66
   6.8947         55
   6.9133         51
   6.9319         68
   6.9504         49
   6.9690         53
   6.9876         61
   7.0062         52
   7.0247         60
   7.0433         60
   7.0619         55
   7.0805         64
   7.0990         57
   7.1176         45
   7.1362         56
   7.1548         70
   7.1733         61
   7.1919         60
   7.2105         68
   7.2291         56
   7.2476         64
   7.2662         63
   7.2848         57
   7.3034         64
   7.3220         63
   7.3405         52
   7.3591         56
   7.3777         49
   7.3963         54
   7.4148         55
   7.4334         52
   7.4520         65
   7.4706         66
   7.4891         48
   7.5077         57
   7.5263         55
   7.5449         59
   7.5634         63
   7.5820         64
   7.6006         60
   7.6192         39
   7.6377         69
   7.6563         76
   7.6749         73
   7.6935         58
   7.7120         73
   7.7306         50
   7.7492         65
   7.7678         79
   7.7863         67
   7.8049         72
   7.8235         84
   7.8421         59
   7.8606         62
   7.8792         60
   7.8978         65
   7.9164         80
   7.9349         61
   7.9535         87
   7.9721         82
   7.9907         66
   8.0092         70
   8.0278         69
   8.0464         71
   8.0650         60
   8.0835         69
   8.1021         52
   8.1207         82
   8.1393         74
   8.1579         67
   8.1764         72
   8.1950         80
   8.2136         66
   8.2322         70
   8.2507         62
   8.2693         74
   8.2879         64
   8.3065         85
   8.3250         59
   8.3436         66
   8.3622         81
   8.3808         83
   8.3993         81
   8.4179         76
   8.4365         71
   8.4551         94
   8.4736         72
   8.4922         79
   8.5108         71
   8.5294         63
   8.5479         75
   8.5665         64
   8.5851         79
   8.6037         85
   8.6222         73
   8.6408         78
   8.6594         74
   8.6780         75
   8.6965         77
   8.7151         68
   8.7337         79
   8.7523         92
   8.7708         75
   8.7894         84
   8.8080         90
   8.8266         79
   8.8451         79
   8.8637         81
   8.8823         76
   8.9009         80
   8.9195         75
   8.9380         69
   8.9566         59
   8.9752         59
   8.9938         89
   9.0123         78
   9.0309         82
   9.0495         76
   9.0681         77
   9.0866         86
   9.1052         80
   9.1238         80
   9.1424         79
   9.1609         73
   9.1795         81
   9.1981         61
   9.2167         68
   9.2352         95
   9.2538         84
   9.2724         91
   9.2910         75
   9.3095         95
   9.3281         96
   9.3467         88
   9.3653         86
   9.3838         88
   9.4024         76
   9.4210         98
   9.4396         94
   9.4581        109
   9.4767         67
   9.4953         73
   9.5139         76
   9.5324         90
   9.5510         81
   9.5696         71
   9.5882         73
   9.6067         83
   9.6253         86
   9.6439         77
   9.6625         74
   9.6811         76
   9.6996         85
   9.7182         81
   9.7368         87
   9.7554         86
   9.7739        103
   9.7925         69
   9.8111         84
   9.8297         95
   9.8482         90
   9.8668         94
   9.8854         98
   9.9040         88
   9.9225         99
   9.9411         91
   9.9597         89
   9.9783         79
   9.9968         71
  10.0154         97
  10.0340         88
  10.0526         88
  10.0711         90
  10.0897         80
  10.1083         99
  10.1269         82
  10.1454         77
  10.1640         91
  10.1826         91
  10.2012         96
  10.2197         91
  10.2383         79
  10.2569         90
  10.2755         81
  10.2940        100
  10.3126         92
  10.3312         96
  10.3498         82
  10.3683         89
  10.3869         74
  10.4055         83
  10.4241         83
  10.4427         87
  10.4612        100
  10.4798         76
  10.4984         80
  10.5170         86
  10.5355         88
  10.5541        100
  10.5727         81
  10.5913         83
  10.6098         99
  10.6284         92
  10.6470         87
  10.6656         83
  10.6841         91
  10.7027         92
  10.7213         84
  10.7399         92
  10.7584         95
  10.7770         77
  10.7956         97
  10.8142         90
  10.8327         91
  10.8513         95
  10.8699         92
  10.8885         84
  10.9070         89
  10.9256         93
  10.9442         75
  10.9628         86
  10.9813         79
  10.9999         82
  11.0185         86
  11.0371         89
  11.0556         87
  11.0742         89
  11.0928         85
  11.1114         84
  11.1299         79
  11.1485         87
  11.1671         82
  11.1857         91
  11.2043         88
  11.2228         82
  11.2414        101
  11.2600         92
  11.2786         90
  11.2971         90
  11.3157         84
  11.3343         74
  11.3529         85
  11.3714         97
  11.3900         73
  11.4086         87
  11.4272         91
  11.4457         88
  11.4643         92
  11.4829         86
  11.5015         79
  11.5200         78
  11.5386        101
  11.5572         78
  11.5758        108
  11.5943         91
  11.6129         92
  11.6315         96
  11.6501         94
  11.6686         94
  11.6872         98
  11.7058         97
  11.7244         76
  11.7429         98
  11.7615         79
  11.7801        100
  11.7987         82
  11.8172         87
  11.8358         89
  11.8544         97
  11.8730         77
  11.8915         86
  11.9101         85
  11.9287         68
  11.9473         75
  11.9659         85
  11.9844         98
  12.0030         80
  12.0216         75
  12.0402         88
  12.0587         92
  12.0773         60
  12.0959         93
  12.1145         70
  12.1330         82
  12.1516         77
  12.1702         85
  12.1888         79
  12.2073         76
  12.2259         83
  12.2445         75
  12.2631         81
  12.2816         86
  12.3002         78
  12.3188         90
  12.3374         92
  12.3559         67
  12.3745         92
  12.3931         94
  12.4117         80
  12.4302         76
  12.4488         71
  12.4674         74
  12.4860         80
  12.5045         80
  12.5231         74
  12.5417         82
  12.5603         90
  12.5788         75
  12.5974         71
  12.6160         74
  12.6346         80
  12.6531         67
  12.6717         91
  12.6903         84
  12.7089         86
  12.7274         67
  12.7460         75
  12.7646         71
  12.7832         64
  12.8018         79
  12.8203         61
  12.8389         90
  12.8575         72
  12.8761         67
  12.8946         81
  12.9132         77
  12.9318         61
  12.9504         89
  12.9689         68
  12.9875         73
  13.0061         67
  13.0247         65
  13.0432         72
  13.0618         61
  13.0804         78
  13.0990         82
  13.1175         70
  13.1361         75
  13.1547         67
  13.1733         62
  13.1918         76
  13.2104         93
  13.2290         71
  13.2476         73
  13.2661         69
  13.2847         72
  13.3033         88
  13.3219         69
  13.3404         76
  13.3590         85
  13.3776         69
  13.3962         67
  13.4147         71
  13.4333         69
  13.4519         60
  13.4705         79
  13.4890         71
  13.5076         65
  13.5262         78
  13.5448         82
  13.5634         54
  13.5819         68
  13.6005         64
  13.6191         83
  13.6377         73
  13.6562         66
  13.6748         66
  13.6934         62
  13.7120         77
  13.7305         70
  13.7491         75
  13.7677         56
  13.7863         69
  13.8048         65
  13.8234         74
  13.8420         68
  13.8606         58
  13.8791         67
  13.8977         64
  13.9163         65
  13.9349         70
  13.9534         73
  13.9720         71
  13.9906         63
  14.0092         65
  14.0277         52
  14.0463         74
  14.0649         59
  14.0835         74
  14.1020         61
  14.1206         66
  14.1392         69
  14.1578         55
  14.1763         65
  14.1949         73
  14.2135         64
  14.2321         70
  14.2506         65
  14.2692         54
  14.2878         76
  14.3064         74
  14.3250         68
  14.3435         70
  14.3621         64
  14.3807         55
  14.3993         67
  14.4178         64
  14.4364         69
  14.4550         56
  14.4736         65
  14.4921         60
  14.5107         62
  14.5293         61
  14.5479         73
  14.5664         78
  14.5850         60
  14.6036         74
  14.6222         66
  14.6407         58
  14.6593         50
  14.6779         70
  14.6965         50
  14.7150         57
  14.7336         67
  14.7522         55
  14.7708         58
  14.7893         67
  14.8079         56
  14.8265         73
  14.8451         69
  14.8636         54
  14.8822         51
  14.9008         83
  14.9194         51
  14.9379         76
  14.9565         69
  14.9751         49
  14.9937         63
  15.0122         63
  15.0308         56
  15.0494         59
  15.0680         53
  15.0866         53
  15.1051         59
  15.1237         57
  15.1423         85
  15.1609         67
  15.1794         51
  15.1980         63
  15.2166         70
  15.2352         57
  15.2537         50
  15.2723         64
  15.2909         51
  15.3095         77
  15.3280         67
  15.3466         73
  15.3652         77
  15.3838         58
  15.4023         62
  15.4209         61
  15.4395         67
  15.4581         49
  15.4766         74
  15.4952         54
  15.5138         56
  15.5324         66
  15.5509         60
  15.5695         69
  15.5881         55
  15.6067         68
  15.6252         51
  15.6438         59
  15.6624         49
  15.6810         55
  15.6995         64
  15.7181         60
  15.7367         51
  15.7553         53
  15.7738         64
  15.7924         57
  15.8110         55
  15.8296         63
  15.8482         51
  15.8667         64
  15.8853         59
  15.9039         48
  15.9225         69
  15.9410         61
  15.9596         73
  15.9782         59
  15.9968         57
  16.0153         49
  16.0339         53
  16.0525         63
  16.0711         69
  16.0896         59
  16.1082         62
  16.1268         72
  16.1454         67
  16.1639         53
  16.1825         60
  16.2011         63
  16.2197         62
  16.2382         67
  16.2568         58
  16.2754         65
  16.2940         60
  16.3125         62
  16.3311         62
  16.3497         53
  16.3683         54
  16.3868         70
  16.4054         53
  16.4240         54
  16.4426         54
  16.4611         54
  16.4797         61
  16.4983         62
  16.5169         60
  16.5354         61
  16.5540         46
  16.5726         46
  16.5912         57
  16.6097         53
  16.6283         57
  16.6469         69
  16.6655         47
  16.6841         64
  16.7026         49
  16.7212         66
  16.7398         63
  16.7584         57
  16.7769         49
  16.7955         57
  16.8141         50
  16.8327         53
  16.8512         50
  16.8698         58
  16.8884         52
  16.9070         47
  16.9255         71
  16.9441         69
  16.9627         57
  16.9813         62
  16.9998         53
  17.0184         54
  17.0370         64
  17.0556         69
  17.0741         73
  17.0927         43
  17.1113         59
  17.1299         59
  17.1484         64
  17.1670         59
  17.1856         54
  17.2042         60
  17.2227         45
  17.2413         51
  17.2599         52
  17.2785         46
  17.2970         66
  17.3156         53
  17.3342         64
  17.3528         64
  17.3713         63
  17.3899         55
  17.4085         50
  17.4271         66
  17.4457         54
  17.4642         67
  17.4828         71
  17.5014         59
  17.5200         60
  17.5385         41
  17.5571         66
  17.5757         72
  17.5943         76
  17.6128         69
  17.6314         70
  17.6500         54
  17.6686         53
  17.6871         52
  17.7057         61
  17.7243         66
  17.7429         54
  17.7614         77
  17.7800         69
  17.7986         56
  17.8172         53
  17.8357         59
  17.8543         60
  17.8729         62
  17.8915         63
  17.9100         50
  17.9286         52
  17.9472         53
  17.9658         71
  17.9843         73
  18.0029         67
  18.0215         59
  18.0401         65
  18.0586         57
  18.0772         57
  18.0958         57
  18.1144         45
  18.1329         58
  18.1515         59
  18.1701         65
  18.1887         72
  18.2073         61
  18.2258         70
  18.2444         52
  18.2630         53
  18.2816         49
  18.3001         68
  18.3187         62
  18.3373         63
  18.3559         58
  18.3744         57
  18.3930         56
  18.4116         54
  18.4302         70
  18.4487         53
  18.4673         68
  18.4859         82
  18.5045         65
  18.5230         53
  18.5416         66
  18.5602         57
  18.5788         58
  18.5973         62
  18.6159         49
  18.6345         54
  18.6531         70
  18.6716         50
  18.6902         51
  18.7088         60
  18.7274         57
  18.7459         78
  18.7645         67
  18.7831         59
  18.8017         67
  18.8202         70
  18.8388         63
  18.8574         61
  18.8760         72
  18.8945         63
  18.9131         70
  18.9317         53
  18.9503         67
  18.9689         63
  18.9874         57
  19.0060         64
  19.0246         66
  19.0432         47
  19.0617         65
  19.0803         62
  19.0989         69
  19.1175         75
  19.1360         77
  19.1546         63
  19.1732         60
  19.1918         65
  19.2103         66
  19.2289         50
  19.2475         70
  19.2661         53
  19.2846         64
  19.3032         63
  19.3218         64
  19.3404         60
  19.3589         79
  19.3775         66
  19.3961         59
  19.4147         66
  19.4332         65
  19.4518         55
  19.4704         82
  19.4890         50
  19.5075         61
  19.5261         64
  19.5447         61
  19.5633         70
  19.5818         60
  19.6004         62
  19.6190         66
  19.6376         60
  19.6561         65
  19.6747         65
  19.6933         71
  19.7119         62
  19.7305         71
  19.7490         66
  19.7676         72
  19.7862         60
  19.8048         59
  19.8233         66
  19.8419         70
  19.8605         45
  19.8791         63
  19.8976         79
  19.9162         66
  19.9348         63
  19.9534         77
  19.9719         60
  19.9905         66
  20.0091         77
  20.0277         73
  20.0462         61
  20.0648         78
  20.0834         73
  20.1020         68
  20.1205         70
  20.1391         69
  20.1577         67
  20.1763         59
  20.1948         72
  20.2134         51
  20.2320         72
  20.2506         65
  20.2691         68
  20.2877         58
  20.3063         58
  20.3249         63
  20.3434         56
  20.3620         68
  20.3806         64
  20.3992         66
  20.4177         56
  20.4363         81
  20.4549         63
  20.4735         74
  20.4921         76
  20.5106         59
  20.5292         65
  20.5478         59
  20.5664         70
  20.5849         74
  20.6035         71
  20.6221         67
  20.6407         74
  20.6592         78
  20.6778         48
  20.6964         60
  20.7150         69
  20.7335         72
  20.7521         69
  20.7707         77
  20.7893         62
  20.8078         58
  20.8264         92
  20.8450         68
  20.8636         71
  20.8821         81
  20.9007         70
  20.9193         66
  20.9379         64
  20.9564         71
  20.9750         74
  20.9936         78
  21.0122         80
  21.0307         70
  21.0493         66
  21.0679         76
  21.0865         70
  21.1050         78
  21.1236         77
  21.1422         78
  21.1608         71
  21.1793         97
  21.1979         98
  21.2165        133
  21.2351        125
  21.2537        109
  21.2722        106
  21.2908        121
  21.3094        127
  21.3280        144
  21.3465        183
  21.3651        206
  21.3837        151
  21.4023        135
  21.4208        138
  21.4394         99
  21.4580         88
  21.4766         83
  21.4951         71
  21.5137         87
  21.5323         78
  21.5509         90
  21.5694         92
  21.5880         82
  21.6066         75
  21.6252         59
  21.6437         84
  21.6623         73
  21.6809         59
  21.6995         78
  21.7180         89
  21.7366         77
  21.7552         71
  21.7738         57
  21.7923         59
  21.8109         70
  21.8295         71
  21.8481         76
  21.8666         74
  21.8852         74
  21.9038         56
  21.9224         86
  21.9409         80
  21.9595         64
  21.9781         68
  21.9967         66
  22.0152         73
  22.0338         72
  22.0524         65
  22.0710         65
  22.0896         81
  22.1081         68
  22.1267         83
  22.1453         80
  22.1639         72
  22.1824         76
  22.2010         82
  22.2196         70
  22.2382         65
  22.2567         74
  22.2753         75
  22.2939         56
  22.3125         60
  22.3310         76
  22.3496         80
  22.3682         67
  22.3868         78
  22.4053         95
  22.4239         73
  22.4425         73
  22.4611         93
  22.4796         58
  22.4982         67
  22.5168         96
  22.5354         66
  22.5539         71
  22.5725         75
  22.5911         47
  22.6097         73
  22.6282         66
  22.6468         58
  22.6654         87
  22.6840         59
  22.7025         75
  22.7211         95
  22.7397         68
  22.7583         64
  22.7768         79
  22.7954         70
  22.8140         75
  22.8326         78
  22.8512         81
  22.8697         70
  22.8883         63
  22.9069         78
  22.9255         86
  22.9440         80
  22.9626         67
  22.9812         60
  22.9998         63
  23.0183         81
  23.0369         80
  23.0555         75
  23.0741         88
  23.0926         76
  23.1112         76
  23.1298         73
  23.1484         71
  23.1669         77
  23.1855         65
  23.2041         73
  23.2227         62
  23.2412         79
  23.2598         71
  23.2784         71
  23.2970         79
  23.3155         73
  23.3341         76
  23.3527         74
  23.3713         81
  23.3898         66
  23.4084         59
  23.4270         61
  23.4456         75
  23.4641         63
  23.4827         80
  23.5013         84
  23.5199         66
  23.5384         66
  23.5570         56
  23.5756         62
  23.5942         73
  23.6128         88
  23.6313         59
  23.6499         75
  23.6685         81
  23.6871         82
  23.7056         70
  23.7242         75
  23.7428         68
  23.7614         66
  23.7799         65
  23.7985         68
  23.8171         75
  23.8357         73
  23.8542         60
  23.8728         90
  23.8914         75
  23.9100         62
  23.9285         84
  23.9471         70
  23.9657         76
  23.9843         74
  24.0028         71
  24.0214         77
  24.0400         82
  24.0586         59
  24.0771         85
  24.0957         59
  24.1143         81
  24.1329         62
  24.1514         85
  24.1700         80
  24.1886         72
  24.2072         82
  24.2257         77
  24.2443         92
  24.2629         76
  24.2815         69
  24.3000         99
  24.3186         76
  24.3372         91
  24.3558         79
  24.3744         66
  24.3929         81
  24.4115         73
  24.4301         89
  24.4487         68
  24.4672         61
  24.4858         85
  24.5044         87
  24.5230         70
  24.5415         72
  24.5601         73
  24.5787         76
  24.5973         75
  24.6158         88
  24.6344         74
  24.6530         55
  24.6716         68
  24.6901         77
  24.7087         68
  24.7273         72
  24.7459         64
  24.7644         66
  24.7830         63
  24.8016         72
  24.8202         74
  24.8387         70
  24.8573         51
  24.8759         69
  24.8945         74
  24.9130         63
  24.9316         76
  24.9502         70
  24.9688         86
  24.9873         71
  25.0059         59
  25.0245         76
  25.0431         72
  25.0616         79
  25.0802         60
  25.0988         70
  25.1174         75
  25.1360         73
  25.1545         79
  25.1731         81
  25.1917         75
  25.2103         64
  25.2288         77
  25.2474         70
  25.2660         78
  25.2846         80
  25.3031         74
  25.3217         73
  25.3403         71
  25.3589         66
  25.3774         88
  25.3960         90
  25.4146         69
  25.4332         71
  25.4517         73
  25.4703         83
  25.4889         81
  25.5075         69
  25.5260         77
  25.5446         77
  25.5632         59
  25.5818         87
  25.6003         76
  25.6189         80
  25.6375         86
  25.6561         72
  25.6746         64
  25.6932         73
  25.7118         64
  25.7304         66
  25.7489         61
  25.7675         64
  25.7861         52
  25.8047         76
  25.8232         71
  25.8418         70
  25.8604         84
  25.8790         64
  25.8976         79
  25.9161         66
  25.9347         64
  25.9533         80
  25.9719         72
  25.9904         69
  26.0090         65
  26.0276         81
  26.0462         80
  26.0647         93
  26.0833         73
  26.1019         73
  26.1205         74
  26.1390         83
  26.1576         75
  26.1762         74
  26.1948         68
  26.2133         61
  26.2319         73
  26.2505         61
  26.2691         65
  26.2876         78
  26.3062         73
  26.3248         80
  26.3434         73
  26.3619         71
  26.3805         89
  26.3991         72
  26.4177         64
  26.4362         81
  26.4548         66
  26.4734         59
  26.4920         75
  26.5105         68
  26.5291         61
  26.5477         79
  26.5663         57
  26.5848         74
  26.6034         76
  26.6220         68
  26.6406         61
  26.6591         62
  26.6777         66
  26.6963         79
  26.7149         73
  26.7335         75
  26.7520         63
  26.7706         82
  26.7892         78
  26.8078         60
  26.8263         84
  26.8449         68
  26.8635         57
  26.8821         69
  26.9006         73
  26.9192         64
  26.9378         78
  26.9564         73
  26.9749         73
  26.9935         89
  27.0121         73
  27.0307         73
  27.0492         79
  27.0678         70
  27.0864         76
  27.1050         60
  27.1235         77
  27.1421         76
  27.1607         85
  27.1793         81
  27.1978         83
  27.2164         83
  27.2350         85
  27.2536         72
  27.2721         80
  27.2907         89
  27.3093         82
  27.3279         74
  27.3464         71
  27.3650         79
  27.3836         59
  27.4022         74
  27.4207         69
  27.4393         88
  27.4579         61
  27.4765         76
  27.4951         66
  27.5136         66
  27.5322         70
  27.5508         53
  27.5694         81
  27.5879         76
  27.6065         69
  27.6251         54
  27.6437         62
  27.6622         77
  27.6808         73
  27.6994         60
  27.7180         57
  27.7365         60
  27.7551         59
  27.7737         65
  27.7923         72
  27.8108         60
  27.8294         61
  27.8480         76
  27.8666         55
  27.8851         39
  27.9037         69
  27.9223         63
  27.9409         63
  27.9594         66
  27.9780         76
  27.9966         73
  28.0152         69
  28.0337         62
  28.0523         62
  28.0709         69
  28.0895         65
  28.1080         66
  28.1266         58
  28.1452         75
  28.1638         63
  28.1823         58
  28.2009         64
  28.2195         72
  28.2381         69
  28.2567         55
  28.2752         63
  28.2938         59
  28.3124         69
  28.3310         42
  28.3495         53
  28.3681         60
  28.3867         72
  28.4053         58
  28.4238         62
  28.4424         61
  28.4610         50
  28.4796         63
  28.4981         45
  28.5167         63
  28.5353         63
  28.5539         75
  28.5724         51
  28.5910         69
  28.6096         62
  28.6282         59
  28.6467         54
  28.6653         61
  28.6839         56
  28.7025         54
  28.7210         61
  28.7396         69
  28.7582         64
  28.7768         65
  28.7953         48
  28.8139         57
  28.8325         51
  28.8511         66
  28.8696         68
  28.8882         63
  28.9068         54
  28.9254         66
  28.9439         72
  28.9625         53
  28.9811         69
  28.9997         59
  29.0183         61
  29.0368         65
  29.0554         59
  29.0740         74
  29.0926         63
  29.1111         68
  29.1297         55
  29.1483         45
  29.1669         59
  29.1854         52
  29.2040         76
  29.2226         60
  29.2412         54
  29.2597         62
  29.2783         47
  29.2969         72
  29.3155         69
  29.3340         36
  29.3526         59
  29.3712         59
  29.3898         66
  29.4083         66
  29.4269         57
  29.4455         54
  29.4641         52
  29.4826         52
  29.5012         79
  29.5198         63
  29.5384         54
  29.5569         65
  29.5755         49
  29.5941         57
  29.6127         54
  29.6312         44
  29.6498         56
  29.6684         65
  29.6870         52
  29.7055         55
  29.7241         56
  29.7427         64
  29.7613         66
  29.7799         64
  29.7984         58
  29.8170         54
  29.8356         53
  29.8542         54
  29.8727         63
  29.8913         51
  29.9099         53
  29.9285         57
  29.9470         58
  29.9656         58
  29.9842         59
  30.0028         57
  30.0213         58
  30.0399         51
  30.0585         58
  30.0771         54
  30.0956         51
  30.1142         68
  30.1328         58
  30.1514         55
  30.1699         40
  30.1885         67
  30.2071         79
  30.2257         66
  30.2442         69
  30.2628         74
  30.2814         63
  30.3000         58
  30.3185         67
  30.3371         79
  30.3557         89
  30.3743         95
  30.3928        138
  30.4114         87
  30.4300         74
  30.4486         77
  30.4671         91
  30.4857         75
  30.5043         64
  30.5229         72
  30.5415         69
  30.5600         53
  30.5786         60
  30.5972         52
  30.6158         68
  30.6343         62
  30.6529         51
  30.6715         62
  30.6901         48
  30.7086         47
  30.7272         57
  30.7458         40
  30.7644         45
  30.7829         53
  30.8015         54
  30.8201         63
  30.8387         56
  30.8572         57
  30.8758         52
  30.8944         55
  30.9130         53
  30.9315         42
  30.9501         52
  30.9687         58
  30.9873         52
  31.0058         51
  31.0244         58
  31.0430         62
  31.0616         52
  31.0801         44
  31.0987         55
  31.1173         38
  31.1359         56
  31.1544         51
  31.1730         55
  31.1916         47
  31.2102         41
  31.2287         50
  31.2473         56
  31.2659         53
  31.2845         55
  31.3030         55
  31.3216         56
  31.3402         53
  31.3588         45
  31.3774         55
  31.3959         48
  31.4145         61
  31.4331         49
  31.4517         48
  31.4702         47
  31.4888         56
  31.5074         59
  31.5260         37
  31.5445         48
  31.5631         52
  31.5817         62
  31.6003         40
  31.6188         45
  31.6374         50
  31.6560         53
  31.6746         57
  31.6931         43
  31.7117         57
  31.7303         50
  31.7489         51
  31.7674         41
  31.7860         38
  31.8046         61
  31.8232         46
  31.8417         55
  31.8603         51
  31.8789         46
  31.8975         42
  31.9160         36
  31.9346         45
  31.9532         47
  31.9718         54
  31.9903         42
  32.0089         62
  32.0275         50
  32.0461         40
  32.0646         41
  32.0832         50
  32.1018         40
  32.1204         60
  32.1390         55
  32.1575         62
  32.1761         38
  32.1947         45
  32.2133         42
  32.2318         35
  32.2504         41
  32.2690         51
  32.2876         55
  32.3061         51
  32.3247         51
  32.3433         52
  32.3619         58
  32.3804         41
  32.3990         45
  32.4176         46
  32.4362         54
  32.4547         47
  32.4733         55
  32.4919         47
  32.5105         59
  32.5290         57
  32.5476         54
  32.5662         67
  32.5848         67
  32.6033         40
  32.6219         39
  32.6405         58
  32.6591         45
  32.6776         52
  32.6962         51
  32.7148         46
  32.7334         59
  32.7519         56
  32.7705         58
  32.7891         40
  32.8077         46
  32.8262         44
  32.8448         46
  32.8634         39
  32.8820         44
  32.9006         51
  32.9191         45
  32.9377         44
  32.9563         43
  32.9749         39
  32.9934         35
  33.0120         59
  33.0306         55
  33.0492         39
  33.0677         56
  33.0863         41
  33.1049         47
  33.1235         41
  33.1420         40
  33.1606         44
  33.1792         37
  33.1978         40
  33.2163         46
  33.2349         57
  33.2535         64
  33.2721         53
  33.2906         46
  33.3092         48
  33.3278         31
  33.3464         42
  33.3649         47
  33.3835         38
  33.4021         46
  33.4207         44
  33.4392         46
  33.4578         49
  33.4764         48
  33.4950         45
  33.5135         48
  33.5321         54
  33.5507         39
  33.5693         43
  33.5878         39
  33.6064         56
  33.6250         49
  33.6436         56
  33.6622         51
  33.6807         55
  33.6993         45
  33.7179         44
  33.7365         33
  33.7550         40
  33.7736         49
  33.7922         38
  33.8108         43
  33.8293         38
  33.8479         38
  33.8665         50
  33.8851         45
  33.9036         38
  33.9222         56
  33.9408         53
  33.9594         36
  33.9779         44
  33.9965         36
  34.0151         34
  34.0337         34
  34.0522         46
  34.0708         45
  34.0894         38
  34.1080         42
  34.1265         48
  34.1451         43
  34.1637         34
  34.1823         25
  34.2008         44
  34.2194         52
  34.2380         38
  34.2566         49
  34.2751         44
  34.2937         41
  34.3123         39
  34.3309         35
  34.3494         36
  34.3680         42
  34.3866         38
  34.4052         56
  34.4238         37
  34.4423         40
  34.4609         48
  34.4795         46
  34.4981         34
  34.5166         44
  34.5352         41
  34.5538         46
  34.5724         39
  34.5909         49
  34.6095         45
  34.6281         44
  34.6467         55
  34.6652         37
  34.6838         47
  34.7024         54
  34.7210         40
  34.7395         40
  34.7581         51
  34.7767         52
  34.7953         60
  34.8138         54
  34.8324         54
  34.8510         62
  34.8696         48
  34.8881         45
  34.9067         48
  34.9253         38
  34.9439         46
  34.9624         48
  34.9810         46
  34.9996         42
  35.0182         43
  35.0367         47
  35.0553         42
  35.0739         41
  35.0925         41
  35.1110         39
  35.1296         36
  35.1482         30
  35.1668         33
  35.1854         32
  35.2039         41
  35.2225         33
  35.2411         41
  35.2597         45
  35.2782         32
  35.2968         39
  35.3154         39
  35.3340         39
  35.3525         42
  35.3711         31
  35.3897         40
  35.4083         26
  35.4268         30
  35.4454         48
  35.4640         28
  35.4826         29
  35.5011         29
  35.5197         49
  35.5383         34
  35.5569         29
  35.5754         39
  35.5940         32
  35.6126         50
  35.6312         36
  35.6497         42
  35.6683         36
  35.6869         42
  35.7055         35
  35.7240         39
  35.7426         31
  35.7612         47
  35.7798         34
  35.7983         39
  35.8169         30
  35.8355         40
  35.8541         38
  35.8726         31
  35.8912         37
  35.9098         32
  35.9284         35
  35.9469         33
  35.9655         29
  35.9841         26
  36.0027         37
  36.0213         25
  36.0398         40
  36.0584         27
  36.0770         32
  36.0956         36
  36.1141         47
  36.1327         38
  36.1513         28
  36.1699         39
  36.1884         30
  36.2070         36
  36.2256         39
  36.2442         42
  36.2627         37
  36.2813         28
  36.2999         44
  36.3185         30
  36.3370         33
  36.3556         39
  36.3742         39
  36.3928         33
  36.4113         29
  36.4299         25
  36.4485         40
  36.4671         26
  36.4856         26
  36.5042         50
  36.5228         30
  36.5414         25
  36.5599         31
  36.5785         25
  36.5971         34
  36.6157         38
  36.6342         31
  36.6528         42
  36.6714         35
  36.6900         35
  36.7085         32
  36.7271         35
  36.7457         25
  36.7643         43
  36.7829         30
  36.8014         37
  36.8200         36
  36.8386         33
  36.8572         46
  36.8757         34
  36.8943         25
  36.9129         38
  36.9315         42
  36.9500         28
  36.9686         44
  36.9872         32
  37.0058         29
  37.0243         36
  37.0429         37
  37.0615         24
  37.0801         31
  37.0986         42
  37.1172         35
  37.1358         35
  37.1544         31
  37.1729         35
  37.1915         30
  37.2101         37
  37.2287         42
  37.2472         36
  37.2658         26
  37.2844         43
  37.3030         36
  37.3215         33
  37.3401         34
  37.3587         27
  37.3773         39
  37.3958         35
  37.4144         38
  37.4330         48
  37.4516         61
  37.4701         49
  37.4887         43
  37.5073         34
  37.5259         47
  37.5445         56
  37.5630         49
  37.5816         44
  37.6002         31
  37.6188         45
  37.6373         36
  37.6559         33
  37.6745         43
  37.6931         32
  37.7116         31
  37.7302         38
  37.7488         29
  37.7674         42
  37.7859         35
  37.8045         28
  37.8231         37
  37.8417         37
  37.8602         34
  37.8788         33
  37.8974         34
  37.9160         34
  37.9345         29
  37.9531         27
  37.9717         24
  37.9903         30
  38.0088         29
  38.0274         33
  38.0460         42
  38.0646         30
  38.0831         35
  38.1017         31
  38.1203         44
  38.1389         38
  38.1574         36
  38.1760         26
  38.1946         27
  38.2132         37
  38.2317         27
  38.2503         24
  38.2689         32
  38.2875         36
  38.3061         18
  38.3246         33
  38.3432         35
  38.3618         39
  38.3804         23
  38.3989         28
  38.4175         26
  38.4361         31
  38.4547         30
  38.4732         29
  38.4918         24
  38.5104         23
  38.5290         27
  38.5475         27
  38.5661         31
  38.5847         26
  38.6033         33
  38.6218         27
  38.6404         32
  38.6590         32
  38.6776         35
  38.6961         30
  38.7147         33
  38.7333         23
  38.7519         38
  38.7704         30
  38.7890         32
  38.8076         24
  38.8262         24
  38.8447         30
  38.8633         37
  38.8819         32
  38.9005         30
  38.9190         28
  38.9376         30
  38.9562         34
  38.9748         31
  38.9933         28
  39.0119         24
  39.0305         35
  39.0491         16
  39.0677         24
  39.0862         36
  39.1048         23
  39.1234         25
  39.1420         31
  39.1605         28
  39.1791         38
  39.1977         31
  39.2163         36
  39.2348         27
  39.2534         27
  39.2720         27
  39.2906         23
  39.3091         25
  39.3277         28
  39.3463         30
  39.3649         23
  39.3834         29
  39.4020         21
  39.4206         31
  39.4392         25
  39.4577         30
  39.4763         32
  39.4949         25
  39.5135         36
  39.5320         36
  39.5506         27
  39.5692         28
  39.5878         29
  39.6063         39
  39.6249         31
  39.6435         35
  39.6621         35
  39.6806         29
  39.6992         33
  39.7178         23
  39.7364         22
  39.7549         27
  39.7735         28
  39.7921         25
  39.8107         21
  39.8293         30
  39.8478         20
  39.8664         25
  39.8850         36
  39.9036         26
  39.9221         25
  39.9407         23
  39.9593         30
  39.9779         21
  39.9964         40
  40.0150         26
  40.0336         28
  40.0522         29
  40.0707         20
  40.0893         30
  40.1079         27
  40.1265         29
  40.1450         46
  40.1636         36
  40.1822         22
  40.2008         29
  40.2193         30
  40.2379         34
  40.2565         30
  40.2751         33
  40.2936         34
  40.3122         37
  40.3308         32
  40.3494         22
  40.3679         31
  40.3865         41
  40.4051         25
  40.4237         25
  40.4422         26
  40.4608         26
  40.4794         22
  40.4980         25
  40.5165         29
  40.5351         26
  40.5537         22
  40.5723         23
  40.5908         27
  40.6094         23
  40.6280         35
  40.6466         31
  40.6652         34
  40.6837         33
  40.7023         30
  40.7209         30
  40.7395         22
  40.7580         31
  40.7766         28
  40.7952         24
  40.8138         24
  40.8323         39
  40.8509         20
  40.8695         33
  40.8881         34
  40.9066         33
  40.9252         27
  40.9438         31
  40.9624         33
  40.9809         31
  40.9995         19
  41.0181         35
  41.0367         29
  41.0552         25
  41.0738         32
  41.0924         28
  41.1110         29
  41.1295         33
  41.1481         33
  41.1667         31
  41.1853         34
  41.2038         20
  41.2224         35
  41.2410         30
  41.2596         24
  41.2781         29
  41.2967         34
  41.3153         39
  41.3339         33
  41.3524         28
  41.3710         24
  41.3896         29
  41.4082         32
  41.4268         20
  41.4453         24
  41.4639         21
  41.4825         20
  41.5011         24
  41.5196         27
  41.5382         33
  41.5568         27
  41.5754         27
  41.5939         25
  41.6125         37
  41.6311         29
  41.6497         29
  41.6682         29
  41.6868         26
  41.7054         21
  41.7240         35
  41.7425         26
  41.7611         31
  41.7797         28
  41.7983         30
  41.8168         26
  41.8354         33
  41.8540         21
  41.8726         26
  41.8911         24
  41.9097         26
  41.9283         37
  41.9469         21
  41.9654         32
  41.9840         27
  42.0026         29
  42.0212         30
  42.0397         23
  42.0583         24
  42.0769         25
  42.0955         32
  42.1140         37
  42.1326         12
  42.1512         24
  42.1698         24
  42.1884         31
  42.2069         33
  42.2255         24
  42.2441         21
  42.2627         34
  42.2812         36
  42.2998         32
  42.3184         27
  42.3370         23
  42.3555         31
  42.3741         29
  42.3927         21
  42.4113         26
  42.4298         22
  42.4484         27
  42.4670         21
  42.4856         20
  42.5041         32
  42.5227         24
  42.5413         30
  42.5599         29
  42.5784         25
  42.5970         27
  42.6156         22
  42.6342         30
  42.6527         26
  42.6713         23
  42.6899         35
  42.7085         30
  42.7270         31
  42.7456         27
  42.7642         31
  42.7828         24
  42.8013         31
  42.8199         33
  42.8385         37
  42.8571         28
  42.8756         32
  42.8942         31
  42.9128         24
  42.9314         35
  42.9500         19
  42.9685         27
  42.9871         26
  43.0057         29
  43.0243         35
  43.0428         30
  43.0614         37
  43.0800         26
  43.0986         22
  43.1171         30
  43.1357         29
  43.1543         21
  43.1729         37
  43.1914         40
  43.2100         43
  43.2286         31
  43.2472         40
  43.2657         36
  43.2843         32
  43.3029         30
  43.3215         38
  43.3400         25
  43.3586         20
  43.3772         19
  43.3958         25
  43.4143         31
  43.4329         26
  43.4515         37
  43.4701         39
  43.4886         45
  43.5072         52
  43.5258         41
  43.5444         28
  43.5629         34
  43.5815         29
  43.6001         39
  43.6187         44
  43.6372         34
  43.6558         21
  43.6744         35
  43.6930         28
  43.7116         31
  43.7301         29
  43.7487         27
  43.7673         24
  43.7859         36
  43.8044         23
  43.8230         19
  43.8416         27
  43.8602         34
  43.8787         17
  43.8973         33
  43.9159         23
  43.9345         20
  43.9530         30
  43.9716         26
  43.9902         31
  44.0088         32
  44.0273         28
  44.0459         24
  44.0645         21
  44.0831         29
  44.1016         33
  44.1202         35
  44.1388         21
  44.1574         29
  44.1759         23
  44.1945         32
  44.2131         17
  44.2317         28
  44.2502         33
  44.2688         29
  44.2874         38
  44.3060         34
  44.3245         31
  44.3431         40
  44.3617         23
  44.3803         26
  44.3988         26
  44.4174         13
  44.4360         28
  44.4546         36
  44.4732         30
  44.4917         28
  44.5103         25
  44.5289         26
  44.5475         36
  44.5660         27
  44.5846         29
  44.6032         26
  44.6218         27
  44.6403         29
  44.6589         34
  44.6775         20
  44.6961         36
  44.7146         27
  44.7332         23
  44.7518         26
  44.7704         24
  44.7889         33
  44.8075         23
  44.8261         28
  44.8447         21
  44.8632         27
  44.8818         31
  44.9004         25
  44.9190         40
  44.9375         35
  44.9561         20
  44.9747         26
  44.9933         21
  45.0118         29
  45.0304         27
  45.0490         38
  45.0676         27
  45.0861         27
  45.1047         24
  45.1233         19
  45.1419         32
  45.1604         37
  45.1790         25
  45.1976         31
  45.2162         22
  45.2347         25
  45.2533         30
  45.2719         29
  45.2905         30
  45.3091         28
  45.3276         22
  45.3462         31
  45.3648         25
  45.3834         22
  45.4019         20
  45.4205         27
  45.4391         29
  45.4577         27
  45.4762         21
  45.4948         17
  45.5134         19
  45.5320         24
  45.5505         18
  45.5691         29
  45.5877         25
  45.6063         24
  45.6248         32
  45.6434         31
  45.6620         33
  45.6806         36
  45.6991         27
  45.7177         25
  45.7363         31
  45.7549         23
  45.7734         20
  45.7920         18
  45.8106         28
  45.8292         26
  45.8477         25
  45.8663         21
  45.8849         29
  45.9035         35
  45.9220         31
  45.9406         22
  45.9592         22
  45.9778         27
  45.9963         30
  46.0149         29
  46.0335         18
  46.0521         25
  46.0707         18
  46.0892         36
  46.1078         26
  46.1264         24
  46.1450         21
  46.1635         29
  46.1821         20
  46.2007         20
  46.2193         30
  46.2378         21
  46.2564         23
  46.2750         20
  46.2936         25
  46.3121         32
  46.3307         16
  46.3493         20
  46.3679         26
  46.3864         33
  46.4050         16
  46.4236         21
  46.4422         18
  46.4607         33
  46.4793         33
  46.4979         20
  46.5165         18
  46.5350         13
  46.5536         25
  46.5722         13
  46.5908         31
  46.6093         27
  46.6279         23
  46.6465         22
  46.6651         22
  46.6836         30
  46.7022         25
  46.7208         20
  46.7394         34
  46.7579         36
  46.7765         34
  46.7951         16
  46.8137         20
  46.8323         21
  46.8508         22
  46.8694         18
  46.8880         21
  46.9066         21
  46.9251         23
  46.9437         28
  46.9623         18
  46.9809         27
  46.9994         23
  47.0180         25
  47.0366         19
  47.0552         21
  47.0737         27
  47.0923         36
  47.1109         34
  47.1295         22
  47.1480         21
  47.1666         33
  47.1852         21
  47.2038         28
  47.2223         25
  47.2409         17
  47.2595         19
  47.2781         20
  47.2966         26
  47.3152         32
  47.3338         22
  47.3524         29
  47.3709         31
  47.3895         27
  47.4081         26
  47.4267         22
  47.4452         26
  47.4638         21
  47.4824         30
  47.5010         37
  47.5195         21
  47.5381         25
  47.5567         25
  47.5753         21
  47.5939         22
  47.6124         30
  47.6310         27
  47.6496         18
  47.6682         18
  47.6867         23
  47.7053         32
  47.7239         21
  47.7425         22
  47.7610         25
  47.7796         27
  47.7982         29
  47.8168         20
  47.8353         18
  47.8539         23
  47.8725         17
  47.8911         28
  47.9096         25
  47.9282         32
  47.9468         24
  47.9654         19
  47.9839         25
  48.0025         19
  48.0211         19
  48.0397         15
  48.0582         30
  48.0768         14
  48.0954         26
  48.1140         31
  48.1325         27
  48.1511         25
  48.1697         30
  48.1883         25
  48.2068         27
  48.2254         37
  48.2440         26
  48.2626         26
  48.2811         26
  48.2997         21
  48.3183         25
  48.3369         16
  48.3555         15
  48.3740         24
  48.3926         14
  48.4112         27
  48.4298         28
  48.4483         23
  48.4669         27
  48.4855         25
  48.5041         28
  48.5226         20
  48.5412         18
  48.5598         24
  48.5784         16
  48.5969         20
  48.6155         17
  48.6341         20
  48.6527         25
  48.6712         19
  48.6898         28
  48.7084         30
  48.7270         26
  48.7455         26
  48.7641         17
  48.7827         32
  48.8013         35
  48.8198         34
  48.8384         15
  48.8570         24
  48.8756         26
  48.8941         31
  48.9127         26
  48.9313         33
  48.9499         55
  48.9684         46
  48.9870         44
  49.0056         21
  49.0242         37
  49.0427         29
  49.0613         25
  49.0799         27
  49.0985         28
  49.1171         23
  49.1356         27
  49.1542         20
  49.1728         27
  49.1914         25
  49.2099         23
  49.2285         34
  49.2471         32
  49.2657         28
  49.2842         28
  49.3028         25
  49.3214         21
  49.3400         27
  49.3585         29
  49.3771         22
  49.3957         10
  49.4143         25
  49.4328         25
  49.4514         26
  49.4700         25
  49.4886         20
  49.5071         23
  49.5257         25
  49.5443         20
  49.5629         30
  49.5814         23
  49.6000         23
  49.6186         19
  49.6372         20
  49.6557         21
  49.6743         19
  49.6929         27
  49.7115         24
  49.7300         27
  49.7486         21
  49.7672         16
  49.7858         31
  49.8043         40
  49.8229         29
  49.8415         21
  49.8601         21
  49.8786         21
  49.8972         24
  49.9158         15
  49.9344         23
  49.9530         17
  49.9715         23
  49.9901         28
  50.0087         25
  50.0273         29
  50.0458         36
  50.0644         14
  50.0830         13
  50.1016         25
  50.1201         25
  50.1387         26
  50.1573         24
  50.1759         32
  50.1944         23
  50.2130         25
  50.2316         30
  50.2502         24
  50.2687         20
  50.2873         27
  50.3059         23
  50.3245         14
  50.3430         32
  50.3616         26
  50.3802         22
  50.3988         23
  50.4173         17
  50.4359         29
  50.4545         26
  50.4731         15
  50.4916         23
  50.5102         15
  50.5288         29
  50.5474         25
  50.5659         26
  50.5845         21
  50.6031         19
  50.6217         26
  50.6402         18
  50.6588         18
  50.6774         22
  50.6960         20
  50.7146         28
  50.7331         23
  50.7517         32
  50.7703         24
  50.7889         22
  50.8074         24
  50.8260         17
  50.8446         20
  50.8632         21
  50.8817         28
  50.9003         26
  50.9189         25
  50.9375         17
  50.9560         20
  50.9746         24
  50.9932         34
  51.0118         21
  51.0303         20
  51.0489         19
  51.0675         24
  51.0861         20
  51.1046         18
  51.1232         24
  51.1418         25
  51.1604         25
  51.1789         24
  51.1975         21
  51.2161         21
  51.2347         24
  51.2532         33
  51.2718         29
  51.2904         22
  51.3090         22
  51.3275         18
  51.3461         28
  51.3647         26
  51.3833         28
  51.4018         18
  51.4204         16
  51.4390         30
  51.4576         35
  51.4762         24
  51.4947         19
  51.5133         29
  51.5319         29
  51.5505         18
  51.5690         23
  51.5876         22
  51.6062         18
  51.6248         16
  51.6433         27
  51.6619         27
  51.6805         23
  51.6991         29
  51.7176         24
  51.7362         32
  51.7548         20
  51.7734         27
  51.7919         20
  51.8105         18
  51.8291         20
  51.8477         27
  51.8662         28
  51.8848         22
  51.9034         22
  51.9220         20
  51.9405         29
  51.9591         29
  51.9777         26
  51.9963         27
  52.0148         22
  52.0334         29
  52.0520         14
  52.0706         22
  52.0891         14
  52.1077         17
  52.1263         20
  52.1449         22
  52.1634         17
  52.1820         18
  52.2006         26
  52.2192         28
  52.2378         27
  52.2563         27
  52.2749         18
  52.2935         13
  52.3121         17
  52.3306         21
  52.3492         26
  52.3678         20
  52.3864         29
  52.4049         15
  52.4235         20
  52.4421         18
  52.4607         27
  52.4792         24
  52.4978         19
  52.5164         17
  52.5350         22
  52.5535         25
  52.5721         18
  52.5907         20
  52.6093         26
  52.6278         16
  52.6464         29
  52.6650         10
  52.6836         20
  52.7021         18
  52.7207         29
  52.7393         18
  52.7579         22
  52.7764         16
  52.7950         30
  52.8136         22
  52.8322         19
  52.8507         19
  52.8693         22
  52.8879         17
  52.9065         32
  52.9250         21
  52.9436         30
  52.9622         17
  52.9808         25
  52.9994         25
  53.0179         26
  53.0365         20
  53.0551         29
  53.0737         19
  53.0922         18
  53.1108         24
  53.1294         20
  53.1480         28
  53.1665         22
  53.1851         17
  53.2037         20
  53.2223         24
  53.2408         21
  53.2594         22
  53.2780         26
  53.2966         19
  53.3151         25
  53.3337         21
  53.3523         14
  53.3709         16
  53.3894         17
  53.4080         14
  53.4266         18
  53.4452         24
  53.4637         21
  53.4823         16
  53.5009         25
  53.5195          9
  53.5380         18
  53.5566         21
  53.5752         26
  53.5938         19
  53.6123         23
  53.6309         23
  53.6495         19
  53.6681         19
  53.6866         19
  53.7052         24
  53.7238         18
  53.7424         23
  53.7610         24
  53.7795         19
  53.7981         24
  53.8167         22
  53.8353         26
  53.8538         23
  53.8724         32
  53.8910         23
  53.9096         21
  53.9281         23
  53.9467         19
  53.9653         17
  53.9839         30
  54.0024         33
  54.0210         32
  54.0396         20
  54.0582         35
  54.0767         20
  54.0953         24
  54.1139         23
  54.1325         20
  54.1510         27
  54.1696         21
  54.1882         30
  54.2068         20
  54.2253         20
  54.2439         18
  54.2625         13
  54.2811         16
  54.2996         25
  54.3182         16
  54.3368         22
  54.3554         20
  54.3739         26
  54.3925         21
  54.4111         24
  54.4297         22
  54.4482         14
  54.4668         27
  54.4854         13
  54.5040         15
  54.5225         12
  54.5411         20
  54.5597         22
  54.5783         15
  54.5969         25
  54.6154         13
  54.6340         22
  54.6526         16
  54.6712         25
  54.6897         16
  54.7083         22
  54.7269         19
  54.7455         20
  54.7640         26
  54.7826         28
  54.8012         22
  54.8198         15
  54.8383         19
  54.8569         16
  54.8755         23
  54.8941         18
  54.9126         18
  54.9312         28
  54.9498         15
  54.9684         22
  54.9869         33
  55.0055         22
  55.0241         19
  55.0427         24
  55.0612         26
  55.0798         16
  55.0984         16
  55.1170         24
  55.1355         26
  55.1541         24
  55.1727         15
  55.1913         23
  55.2098         20
  55.2284         25
  55.2470         22
  55.2656         25
  55.2841         25
  55.3027         31
  55.3213         18
  55.3399         19
  55.3585         19
  55.3770         18
  55.3956         19
  55.4142         20
  55.4328         25
  55.4513         23
  55.4699         22
  55.4885         19
  55.5071         22
  55.5256         18
  55.5442         28
  55.5628         28
  55.5814         20
  55.5999         22
  55.6185         19
  55.6371         16
  55.6557         31
  55.6742         18
  55.6928         20
  55.7114         19
  55.7300         14
  55.7485         22
  55.7671         25
  55.7857         23
  55.8043         14
  55.8228         18
  55.8414         25
  55.8600         24
  55.8786         21
  55.8971         27
  55.9157         19
  55.9343         25
  55.9529         21
  55.9714         25
  55.9900         18
  56.0086         22
  56.0272         28
  56.0457         31
  56.0643         15
  56.0829         27
  56.1015         25
  56.1201         20
  56.1386         23
  56.1572         25
  56.1758         25
  56.1944         15
  56.2129         19
  56.2315         28
  56.2501         25
  56.2687         17
  56.2872         20
  56.3058         22
  56.3244         22
  56.3430         21
  56.3615         28
  56.3801         20
  56.3987         18
  56.4173         20
  56.4358         20
  56.4544         25
  56.4730         28
  56.4916         19
  56.5101         22
  56.5287         16
  56.5473         20
  56.5659         14
  56.5844         18
  56.6030         26
  56.6216         22
  56.6402         27
  56.6587         21
  56.6773         22
  56.6959         33
  56.7145         24
  56.7330         21
  56.7516         27
  56.7702         24
  56.7888         19
  56.8073         25
  56.8259         12
  56.8445         22
  56.8631         14
  56.8817         15
  56.9002         22
  56.9188         19
  56.9374         25
  56.9560         16
  56.9745         15
  56.9931         18
  57.0117         36
  57.0303         22
  57.0488         15
  57.0674         16
  57.0860         12
  57.1046         23
  57.1231         25
  57.1417         17
  57.1603         28
  57.1789         17
  57.1974         23
  57.2160         14
  57.2346         21
  57.2532         21
  57.2717         14
  57.2903         12
  57.3089         16
  57.3275         32
  57.3460         28
  57.3646         19
  57.3832         17
  57.4018         23
  57.4203         26
  57.4389         18
  57.4575         21
  57.4761         19
  57.4946         16
  57.5132         23
  57.5318         24
  57.5504         19
  57.5689         14
  57.5875         30
  57.6061         22
  57.6247         14
  57.6433         21
  57.6618         27
  57.6804         22
  57.6990         18
  57.7176         23
  57.7361         17
  57.7547         26
  57.7733         22
  57.7919         20
  57.8104         15
  57.8290         22
  57.8476         20
  57.8662         26
  57.8847         26
  57.9033         19
  57.9219         27
  57.9405         19
  57.9590         23
  57.9776         17
  57.9962         24
  58.0148         23
  58.0333         20
  58.0519         26
  58.0705         22
  58.0891         16
  58.1076         16
  58.1262         20
  58.1448         25
  58.1634         21
  58.1819         16
  58.2005         26
  58.2191         20
  58.2377         17
  58.2562         18
  58.2748         23
  58.2934         17
  58.3120         17
  58.3305         19
  58.3491         20
  58.3677         21
  58.3863         23
  58.4049         24
  58.4234         21
  58.4420         22
  58.4606         12
  58.4792         14
  58.4977         19
  58.5163         28
  58.5349         18
  58.5535         13
  58.5720         11
  58.5906         16
  58.6092         22
  58.6278         24
  58.6463         19
  58.6649         13
  58.6835         25
  58.7021         19
  58.7206         12
  58.7392         18
  58.7578         14
  58.7764         18
  58.7949         16
  58.8135         20
  58.8321         21
  58.8507         18
  58.8692         20
  58.8878         16
  58.9064         24
  58.9250         30
  58.9435         15
  58.9621         19
  58.9807         26
  58.9993         16
  59.0178         18
  59.0364         19
  59.0550         20
  59.0736         20
  59.0921         21
  59.1107         16
  59.1293         25
  59.1479         18
  59.1664         22
  59.1850         19
  59.2036         16
  59.2222         22
  59.2408         19
  59.2593         18
  59.2779         23
  59.2965         23
  59.3151         18
  59.3336         19
  59.3522         21
  59.3708         22
  59.3894         19
  59.4079         27
  59.4265         17
  59.4451         14
  59.4637         20
  59.4822         15
  59.5008         26
  59.5194         24
  59.5380         17
  59.5565         17
  59.5751         18
  59.5937         18
  59.6123         28
  59.6308         22
  59.6494         20
  59.6680         22
  59.6866         11
  59.7051         24
  59.7237         18
  59.7423         18
  59.7609         23
  59.7794         23
  59.7980         25
  59.8166         26
  59.8352         17
  59.8537         16
  59.8723         20
  59.8909         23
  59.9095         25
  59.9280         19
  59.9466         21
  59.9652         21
  59.9838         23
  60.0024         29
