; (content of file Y:\Sam\Apurva-07-20-2022\puck4\ML_20220718_2_SJD_0_LaB6-2min.raw)
_FILEVERSION = 3
_SAMPLE = ML_20220718_2_SJD_0_LaB6-2mi
_+SAMPLE = 
_SITE = USA
_USER = Administrator
_GONIOMETER_CODE = 20
; Goniometer : D8 theta/2theta, stage : Unknown
_ATTACHMENTS_CODE = 0
_GONIOMETER_RADIUS = 200.5
_FIXED_DIVSLIT = 0.6
_FIXED_SAMPLESLIT = 0
_SOLLER_SLITS = 2
_FIXED_DETSLIT = 9.55
_MONOCHROMATOR = 0
; Incident beam monochromator : None
_SOLLER_SLITS_2 = N
_THIN_FILM = N
_BETA_FILTER = Y
_FIXED_ANTISLIT = 5.89
_ANALYZER_CODE = 0
; Received beam analyzer : None
_DATEMEASURED = "21-Jul-2022 02:51:30"
_WL_UNIT = A
_WL1 = 1.5406
_WL2 = 1.54439
_WL3 = 1.39222
_WLRATIO = 0.5
_ANODE = Cu
_V4_INF_CREATOR = XRDWizard
_V4_INF_CREATOR_VERSION = V2.9.0.22
_V4_INF_WIZARD_VERSION = V2.9.0.22
_V4_INF_WIZARD_ADDINS = V2.9.0.22
_V4_INF_WIZARD_DOCTYPE = XRD
_V4_INF_OSUSER = McQueenLab
_V4_INF_USER = Administrator
_V4_INF_SITE = USA
_V4_INF_SAMPLEID = ML_20220718_2_SJD_0_LaB6-2mi

; Data for range 1
_DRIVE = COUPLED
_STEPTIME = 5.64
_STEPSIZE = 0.0185756
_STEPMODE = C
_START = 5
_THETA = 2.5
_2THETA = 5
_KHI = 0
_PHI = 0
_X = 0
_Y = 0
_Z = 0
_DETECTOR = 5
; Detector type : Unknown
_DETECTORSLIT = unkn
_AUX1 = 0
_AUX2 = 0
_AUX3 = 0
_TIMESTARTED = 15
_TEMP_RATE = -1
_TEMP_DELAY = -1
_KV = 40
_MA = 40
_RANGE_WL = 1.5406
_3DPLANE = 0
_V4_ADDITIONALDETECTOR = 257
_V4_PSD2THETA = 3.3704
_V4_PSDCHANNEL1 = 0
_V4_PSDAPERTURE = 12.68
_V4_PSDTYPE = 5
_V4_PSDFIXED = 0
_V4_COUNTERS_MASK = 4096
_V4_DRIVES_MASK = 0
_V4_ENCODERS_MASK = 0
_2THETACOUNTS = 1
; 2THETA  PSD
   5.0000        153
   5.0186        131
   5.0372        131
   5.0557        124
   5.0743        144
   5.0929        117
   5.1115        117
   5.1300        132
   5.1486        111
   5.1672        131
   5.1858        129
   5.2043        114
   5.2229        142
   5.2415        140
   5.2601        118
   5.2786        112
   5.2972        117
   5.3158        102
   5.3344        113
   5.3529        134
   5.3715        117
   5.3901        120
   5.4087        113
   5.4272        100
   5.4458        113
   5.4644         99
   5.4830        114
   5.5015         87
   5.5201        111
   5.5387        106
   5.5573         94
   5.5758        118
   5.5944         90
   5.6130        126
   5.6316        106
   5.6501        103
   5.6687        106
   5.6873        113
   5.7059        102
   5.7244         96
   5.7430        106
   5.7616        108
   5.7802         98
   5.7988        103
   5.8173        114
   5.8359         92
   5.8545        110
   5.8731         92
   5.8916         87
   5.9102        105
   5.9288        104
   5.9474         94
   5.9659        127
   5.9845         90
   6.0031        101
   6.0217         85
   6.0402        100
   6.0588         84
   6.0774         98
   6.0960         94
   6.1145         87
   6.1331         97
   6.1517         97
   6.1703         94
   6.1888         88
   6.2074         95
   6.2260         86
   6.2446         65
   6.2631         79
   6.2817        107
   6.3003        101
   6.3189         87
   6.3374         98
   6.3560         84
   6.3746         77
   6.3932         91
   6.4117         77
   6.4303         88
   6.4489         81
   6.4675         85
   6.4860         94
   6.5046         82
   6.5232        102
   6.5418         71
   6.5604         84
   6.5789         94
   6.5975         84
   6.6161         83
   6.6347         78
   6.6532         92
   6.6718         89
   6.6904         81
   6.7090         90
   6.7275         73
   6.7461         89
   6.7647         88
   6.7833         87
   6.8018         72
   6.8204         89
   6.8390         74
   6.8576         92
   6.8761         81
   6.8947         77
   6.9133         80
   6.9319         71
   6.9504         74
   6.9690         77
   6.9876         82
   7.0062         67
   7.0247         62
   7.0433         77
   7.0619         77
   7.0805         91
   7.0990         85
   7.1176         86
   7.1362         53
   7.1548         77
   7.1733         76
   7.1919         89
   7.2105         83
   7.2291         66
   7.2476         88
   7.2662         82
   7.2848         72
   7.3034         81
   7.3220         81
   7.3405         60
   7.3591         82
   7.3777         66
   7.3963         64
   7.4148         87
   7.4334         88
   7.4520         90
   7.4706         84
   7.4891         86
   7.5077         84
   7.5263         99
   7.5449         68
   7.5634         89
   7.5820         93
   7.6006         84
   7.6192         70
   7.6377         81
   7.6563        102
   7.6749         71
   7.6935         66
   7.7120         88
   7.7306         85
   7.7492         98
   7.7678         73
   7.7863         80
   7.8049         73
   7.8235         88
   7.8421         87
   7.8606        102
   7.8792        102
   7.8978         88
   7.9164         84
   7.9349        101
   7.9535        100
   7.9721         67
   7.9907        104
   8.0092         79
   8.0278         80
   8.0464        115
   8.0650         92
   8.0835         73
   8.1021        103
   8.1207        106
   8.1393         95
   8.1579         92
   8.1764         86
   8.1950         93
   8.2136        102
   8.2322         84
   8.2507         89
   8.2693         89
   8.2879         87
   8.3065         99
   8.3250         87
   8.3436         98
   8.3622         99
   8.3808        107
   8.3993         92
   8.4179         91
   8.4365        100
   8.4551         96
   8.4736         95
   8.4922         84
   8.5108        101
   8.5294        103
   8.5479         92
   8.5665        100
   8.5851         91
   8.6037         96
   8.6222        108
   8.6408         95
   8.6594         87
   8.6780         85
   8.6965        102
   8.7151         98
   8.7337        114
   8.7523        106
   8.7708         78
   8.7894         89
   8.8080         93
   8.8266        104
   8.8451         99
   8.8637        114
   8.8823         98
   8.9009         85
   8.9195         97
   8.9380         95
   8.9566         95
   8.9752        100
   8.9938         92
   9.0123         98
   9.0309        128
   9.0495         90
   9.0681         83
   9.0866        113
   9.1052         95
   9.1238        111
   9.1424        100
   9.1609         90
   9.1795         90
   9.1981         92
   9.2167        101
   9.2352         98
   9.2538         97
   9.2724        111
   9.2910         90
   9.3095        103
   9.3281        106
   9.3467         95
   9.3653        101
   9.3838        116
   9.4024        111
   9.4210        101
   9.4396        101
   9.4581        101
   9.4767        106
   9.4953         95
   9.5139        111
   9.5324         91
   9.5510        102
   9.5696        118
   9.5882         99
   9.6067        120
   9.6253        126
   9.6439        109
   9.6625         99
   9.6811        105
   9.6996        104
   9.7182        125
   9.7368        119
   9.7554        106
   9.7739        105
   9.7925        112
   9.8111        101
   9.8297        120
   9.8482        118
   9.8668        116
   9.8854        106
   9.9040        107
   9.9225        105
   9.9411        111
   9.9597        122
   9.9783        101
   9.9968        128
  10.0154        118
  10.0340        130
  10.0526        117
  10.0711        120
  10.0897        117
  10.1083        114
  10.1269        114
  10.1454         93
  10.1640        129
  10.1826        112
  10.2012         98
  10.2197        111
  10.2383         99
  10.2569        122
  10.2755        113
  10.2940        131
  10.3126        103
  10.3312        118
  10.3498         92
  10.3683        119
  10.3869        106
  10.4055        112
  10.4241        122
  10.4427         99
  10.4612        131
  10.4798        113
  10.4984        112
  10.5170        115
  10.5355        121
  10.5541        108
  10.5727        123
  10.5913        133
  10.6098        136
  10.6284        112
  10.6470        120
  10.6656        122
  10.6841         95
  10.7027        126
  10.7213        125
  10.7399         99
  10.7584        120
  10.7770        118
  10.7956        105
  10.8142        118
  10.8327         94
  10.8513        115
  10.8699        125
  10.8885        116
  10.9070        123
  10.9256        102
  10.9442        108
  10.9628        127
  10.9813        130
  10.9999        118
  11.0185        123
  11.0371        132
  11.0556        117
  11.0742         97
  11.0928        121
  11.1114        111
  11.1299        108
  11.1485        119
  11.1671        105
  11.1857        118
  11.2043         95
  11.2228         97
  11.2414        115
  11.2600        120
  11.2786        104
  11.2971        116
  11.3157        130
  11.3343        100
  11.3529        116
  11.3714        115
  11.3900        119
  11.4086        116
  11.4272        100
  11.4457        113
  11.4643        108
  11.4829        107
  11.5015         98
  11.5200        116
  11.5386        118
  11.5572        120
  11.5758        118
  11.5943        109
  11.6129        145
  11.6315        123
  11.6501        108
  11.6686        103
  11.6872         90
  11.7058         98
  11.7244        101
  11.7429        126
  11.7615        103
  11.7801        123
  11.7987        128
  11.8172        116
  11.8358         98
  11.8544         94
  11.8730        106
  11.8915        111
  11.9101         87
  11.9287        113
  11.9473        105
  11.9659         96
  11.9844        102
  12.0030        110
  12.0216        107
  12.0402        102
  12.0587        107
  12.0773         90
  12.0959        127
  12.1145         90
  12.1330        112
  12.1516        113
  12.1702        109
  12.1888        103
  12.2073         99
  12.2259        104
  12.2445        104
  12.2631        103
  12.2816        101
  12.3002         94
  12.3188        114
  12.3374        102
  12.3559        112
  12.3745         97
  12.3931        108
  12.4117        111
  12.4302        102
  12.4488        111
  12.4674         87
  12.4860        104
  12.5045        104
  12.5231        102
  12.5417         94
  12.5603         93
  12.5788         95
  12.5974         97
  12.6160        116
  12.6346         98
  12.6531        101
  12.6717         97
  12.6903         99
  12.7089        114
  12.7274         97
  12.7460        123
  12.7646         93
  12.7832         99
  12.8018         80
  12.8203        111
  12.8389         92
  12.8575         94
  12.8761        120
  12.8946         93
  12.9132         96
  12.9318         86
  12.9504        116
  12.9689        103
  12.9875         90
  13.0061        111
  13.0247         93
  13.0432        107
  13.0618         99
  13.0804        106
  13.0990         92
  13.1175        107
  13.1361         95
  13.1547         98
  13.1733         87
  13.1918         73
  13.2104        111
  13.2290        104
  13.2476         92
  13.2661        106
  13.2847         90
  13.3033         93
  13.3219        100
  13.3404         89
  13.3590         92
  13.3776         87
  13.3962         98
  13.4147         93
  13.4333         85
  13.4519         99
  13.4705        104
  13.4890        102
  13.5076         95
  13.5262         80
  13.5448         91
  13.5634        104
  13.5819        105
  13.6005        113
  13.6191         84
  13.6377         82
  13.6562         82
  13.6748         93
  13.6934         88
  13.7120         90
  13.7305         96
  13.7491         74
  13.7677         85
  13.7863         91
  13.8048         99
  13.8234         78
  13.8420         95
  13.8606        105
  13.8791         85
  13.8977         70
  13.9163         97
  13.9349         92
  13.9534         90
  13.9720         92
  13.9906        103
  14.0092        100
  14.0277         80
  14.0463         94
  14.0649         92
  14.0835         96
  14.1020         86
  14.1206         89
  14.1392         74
  14.1578         77
  14.1763         76
  14.1949         90
  14.2135         93
  14.2321         90
  14.2506         79
  14.2692         92
  14.2878         80
  14.3064         81
  14.3250        111
  14.3435         84
  14.3621         76
  14.3807         80
  14.3993         77
  14.4178         78
  14.4364         68
  14.4550         99
  14.4736         89
  14.4921         86
  14.5107         72
  14.5293         70
  14.5479         90
  14.5664         87
  14.5850         91
  14.6036         82
  14.6222         85
  14.6407         80
  14.6593         85
  14.6779         90
  14.6965         74
  14.7150         93
  14.7336         70
  14.7522         83
  14.7708         83
  14.7893         81
  14.8079         76
  14.8265         80
  14.8451         60
  14.8636         58
  14.8822         80
  14.9008         76
  14.9194         89
  14.9379         85
  14.9565         67
  14.9751         90
  14.9937         68
  15.0122         76
  15.0308         96
  15.0494         81
  15.0680         72
  15.0866         77
  15.1051         74
  15.1237         71
  15.1423         86
  15.1609         90
  15.1794         87
  15.1980         95
  15.2166         83
  15.2352         78
  15.2537         95
  15.2723         74
  15.2909         80
  15.3095         78
  15.3280         84
  15.3466         81
  15.3652         85
  15.3838         76
  15.4023         89
  15.4209         82
  15.4395         80
  15.4581         79
  15.4766         77
  15.4952         72
  15.5138         88
  15.5324         85
  15.5509         97
  15.5695         83
  15.5881         87
  15.6067         84
  15.6252         69
  15.6438         70
  15.6624         84
  15.6810         75
  15.6995         84
  15.7181         78
  15.7367         87
  15.7553         81
  15.7738         82
  15.7924         80
  15.8110         80
  15.8296         76
  15.8482         75
  15.8667         65
  15.8853         88
  15.9039         87
  15.9225         84
  15.9410         70
  15.9596         68
  15.9782         71
  15.9968         93
  16.0153         86
  16.0339         75
  16.0525         67
  16.0711         84
  16.0896         92
  16.1082         81
  16.1268         65
  16.1454         67
  16.1639         80
  16.1825         91
  16.2011         80
  16.2197         77
  16.2382         85
  16.2568         85
  16.2754         82
  16.2940         78
  16.3125         72
  16.3311         88
  16.3497         65
  16.3683         66
  16.3868         74
  16.4054         72
  16.4240         65
  16.4426         86
  16.4611         71
  16.4797         69
  16.4983         85
  16.5169         84
  16.5354         83
  16.5540         78
  16.5726         81
  16.5912         59
  16.6097         78
  16.6283         93
  16.6469         83
  16.6655         84
  16.6841         93
  16.7026         74
  16.7212         77
  16.7398         68
  16.7584         74
  16.7769         88
  16.7955         68
  16.8141         74
  16.8327         88
  16.8512         89
  16.8698         77
  16.8884         96
  16.9070         82
  16.9255         78
  16.9441         64
  16.9627         75
  16.9813         82
  16.9998         70
  17.0184         75
  17.0370         88
  17.0556         84
  17.0741         77
  17.0927        105
  17.1113         69
  17.1299         82
  17.1484         77
  17.1670         80
  17.1856         68
  17.2042         83
  17.2227         89
  17.2413         59
  17.2599         82
  17.2785         79
  17.2970         67
  17.3156         70
  17.3342         86
  17.3528         73
  17.3713         73
  17.3899         69
  17.4085         71
  17.4271         77
  17.4457         68
  17.4642         81
  17.4828         85
  17.5014         79
  17.5200         76
  17.5385         70
  17.5571         73
  17.5757         88
  17.5943         65
  17.6128         91
  17.6314         73
  17.6500         75
  17.6686         65
  17.6871         72
  17.7057         80
  17.7243         79
  17.7429         86
  17.7614         80
  17.7800         77
  17.7986         74
  17.8172         87
  17.8357         70
  17.8543         90
  17.8729         69
  17.8915         86
  17.9100         84
  17.9286         81
  17.9472         75
  17.9658         68
  17.9843         73
  18.0029         77
  18.0215         86
  18.0401         64
  18.0586         85
  18.0772         84
  18.0958         80
  18.1144         84
  18.1329         70
  18.1515         90
  18.1701         76
  18.1887         74
  18.2073         70
  18.2258         79
  18.2444         93
  18.2630         72
  18.2816         81
  18.3001         76
  18.3187         80
  18.3373         85
  18.3559         73
  18.3744         72
  18.3930         81
  18.4116         78
  18.4302         78
  18.4487         92
  18.4673         91
  18.4859         81
  18.5045         77
  18.5230         87
  18.5416         71
  18.5602         76
  18.5788         70
  18.5973         80
  18.6159         75
  18.6345         88
  18.6531         94
  18.6716         74
  18.6902         62
  18.7088         79
  18.7274         77
  18.7459         93
  18.7645         62
  18.7831         81
  18.8017         90
  18.8202         72
  18.8388         92
  18.8574         91
  18.8760         88
  18.8945        100
  18.9131         93
  18.9317         89
  18.9503         80
  18.9689         88
  18.9874         82
  19.0060         83
  19.0246         87
  19.0432        103
  19.0617         82
  19.0803         74
  19.0989         75
  19.1175         89
  19.1360         80
  19.1546         91
  19.1732         92
  19.1918         75
  19.2103         78
  19.2289         90
  19.2475         77
  19.2661         79
  19.2846         91
  19.3032         66
  19.3218         73
  19.3404         89
  19.3589         76
  19.3775         90
  19.3961         97
  19.4147         86
  19.4332         89
  19.4518         98
  19.4704         77
  19.4890        101
  19.5075         83
  19.5261         84
  19.5447         82
  19.5633         80
  19.5818         77
  19.6004         77
  19.6190         85
  19.6376         79
  19.6561         75
  19.6747         72
  19.6933         80
  19.7119        100
  19.7305         76
  19.7490        106
  19.7676         94
  19.7862         85
  19.8048         78
  19.8233         88
  19.8419         89
  19.8605        100
  19.8791         75
  19.8976         76
  19.9162        110
  19.9348         77
  19.9534         86
  19.9719         87
  19.9905         67
  20.0091         88
  20.0277        109
  20.0462         86
  20.0648         94
  20.0834         83
  20.1020         75
  20.1205         80
  20.1391        111
  20.1577         92
  20.1763         93
  20.1948         97
  20.2134         89
  20.2320         93
  20.2506        100
  20.2691         93
  20.2877        105
  20.3063         91
  20.3249         82
  20.3434         82
  20.3620         93
  20.3806         78
  20.3992        102
  20.4177         87
  20.4363         90
  20.4549         92
  20.4735         89
  20.4921         94
  20.5106         81
  20.5292         79
  20.5478        107
  20.5664         96
  20.5849         88
  20.6035         87
  20.6221         91
  20.6407        111
  20.6592         95
  20.6778         89
  20.6964         85
  20.7150         90
  20.7335         80
  20.7521        111
  20.7707         89
  20.7893         95
  20.8078         82
  20.8264         96
  20.8450         80
  20.8636         85
  20.8821         93
  20.9007        100
  20.9193         95
  20.9379         97
  20.9564         94
  20.9750         94
  20.9936        107
  21.0122        107
  21.0307         94
  21.0493        107
  21.0679         96
  21.0865         91
  21.1050         80
  21.1236         98
  21.1422        125
  21.1608        103
  21.1793        145
  21.1979        163
  21.2165        145
  21.2351        155
  21.2537        157
  21.2722        161
  21.2908        156
  21.3094        185
  21.3280        234
  21.3465        247
  21.3651        173
  21.3837        168
  21.4023        180
  21.4208        126
  21.4394        106
  21.4580        102
  21.4766         87
  21.4951         95
  21.5137         96
  21.5323        103
  21.5509         92
  21.5694         76
  21.5880         98
  21.6066        106
  21.6252         90
  21.6437        104
  21.6623        106
  21.6809         90
  21.6995        103
  21.7180         88
  21.7366         99
  21.7552         93
  21.7738         97
  21.7923         95
  21.8109         93
  21.8295        112
  21.8481         96
  21.8666         97
  21.8852         70
  21.9038         78
  21.9224         84
  21.9409         91
  21.9595        104
  21.9781        106
  21.9967         95
  22.0152        105
  22.0338        102
  22.0524         97
  22.0710         97
  22.0896         89
  22.1081         94
  22.1267         84
  22.1453         95
  22.1639         79
  22.1824         95
  22.2010         84
  22.2196        108
  22.2382         83
  22.2567         96
  22.2753         90
  22.2939        101
  22.3125         76
  22.3310        101
  22.3496         94
  22.3682         86
  22.3868        103
  22.4053         96
  22.4239         73
  22.4425         91
  22.4611        109
  22.4796        104
  22.4982         93
  22.5168         99
  22.5354         98
  22.5539         96
  22.5725         89
  22.5911         91
  22.6097        111
  22.6282        115
  22.6468        103
  22.6654         88
  22.6840        103
  22.7025        103
  22.7211         86
  22.7397         82
  22.7583        106
  22.7768         94
  22.7954         84
  22.8140         94
  22.8326         90
  22.8512         98
  22.8697        112
  22.8883         90
  22.9069        100
  22.9255        101
  22.9440         87
  22.9626        110
  22.9812         96
  22.9998         78
  23.0183         95
  23.0369        117
  23.0555         98
  23.0741         90
  23.0926         94
  23.1112        107
  23.1298         85
  23.1484         93
  23.1669         97
  23.1855        115
  23.2041        113
  23.2227         98
  23.2412        102
  23.2598         93
  23.2784        102
  23.2970         96
  23.3155        101
  23.3341         92
  23.3527        103
  23.3713        107
  23.3898        102
  23.4084        101
  23.4270        104
  23.4456        102
  23.4641         98
  23.4827         94
  23.5013         98
  23.5199        111
  23.5384        101
  23.5570        117
  23.5756         88
  23.5942        100
  23.6128         90
  23.6313        103
  23.6499         85
  23.6685        108
  23.6871         91
  23.7056         94
  23.7242        107
  23.7428        106
  23.7614         90
  23.7799         96
  23.7985        100
  23.8171        116
  23.8357         99
  23.8542         91
  23.8728         92
  23.8914         85
  23.9100         80
  23.9285        100
  23.9471         92
  23.9657         80
  23.9843        103
  24.0028        103
  24.0214         96
  24.0400        102
  24.0586        102
  24.0771        108
  24.0957         90
  24.1143        116
  24.1329        103
  24.1514         89
  24.1700        117
  24.1886        100
  24.2072         88
  24.2257        100
  24.2443        110
  24.2629         94
  24.2815        133
  24.3000        111
  24.3186        104
  24.3372         87
  24.3558        104
  24.3744        105
  24.3929        109
  24.4115        111
  24.4301         85
  24.4487         95
  24.4672         96
  24.4858         91
  24.5044        100
  24.5230         97
  24.5415         88
  24.5601         87
  24.5787        109
  24.5973         98
  24.6158        111
  24.6344         93
  24.6530        101
  24.6716         94
  24.6901        107
  24.7087         95
  24.7273         92
  24.7459        100
  24.7644         84
  24.7830         96
  24.8016         99
  24.8202         97
  24.8387         91
  24.8573        107
  24.8759         89
  24.8945        106
  24.9130         92
  24.9316         98
  24.9502         84
  24.9688        112
  24.9873         83
  25.0059         87
  25.0245         88
  25.0431        101
  25.0616         91
  25.0802         93
  25.0988        111
  25.1174         87
  25.1360         97
  25.1545         85
  25.1731        106
  25.1917         87
  25.2103         93
  25.2288         90
  25.2474        111
  25.2660         86
  25.2846         78
  25.3031        108
  25.3217         91
  25.3403        107
  25.3589         84
  25.3774        116
  25.3960         97
  25.4146         97
  25.4332        101
  25.4517         90
  25.4703        100
  25.4889        103
  25.5075         95
  25.5260         98
  25.5446        104
  25.5632         86
  25.5818        107
  25.6003         93
  25.6189        107
  25.6375         80
  25.6561         94
  25.6746        104
  25.6932         94
  25.7118        100
  25.7304        100
  25.7489        109
  25.7675         89
  25.7861        110
  25.8047         89
  25.8232         84
  25.8418         97
  25.8604         89
  25.8790         91
  25.8976        100
  25.9161        106
  25.9347        102
  25.9533         96
  25.9719         98
  25.9904         87
  26.0090         92
  26.0276         72
  26.0462        111
  26.0647        107
  26.0833        103
  26.1019        101
  26.1205        107
  26.1390         90
  26.1576         94
  26.1762         86
  26.1948        105
  26.2133        103
  26.2319        117
  26.2505         94
  26.2691         95
  26.2876         86
  26.3062         91
  26.3248         82
  26.3434         91
  26.3619         95
  26.3805        104
  26.3991         79
  26.4177         92
  26.4362         89
  26.4548         96
  26.4734        103
  26.4920         95
  26.5105        102
  26.5291         99
  26.5477         90
  26.5663         85
  26.5848         97
  26.6034        109
  26.6220         87
  26.6406         81
  26.6591        100
  26.6777         94
  26.6963         88
  26.7149         93
  26.7335         91
  26.7520         81
  26.7706         98
  26.7892         86
  26.8078         88
  26.8263         98
  26.8449         91
  26.8635         80
  26.8821         74
  26.9006        100
  26.9192         87
  26.9378        110
  26.9564         81
  26.9749         86
  26.9935         91
  27.0121         98
  27.0307         97
  27.0492        101
  27.0678         84
  27.0864         81
  27.1050        110
  27.1235         81
  27.1421        114
  27.1607        119
  27.1793        114
  27.1978        124
  27.2164        110
  27.2350        134
  27.2536        102
  27.2721        109
  27.2907         91
  27.3093         86
  27.3279         79
  27.3464         90
  27.3650         90
  27.3836         87
  27.4022         85
  27.4207         96
  27.4393         78
  27.4579         91
  27.4765         96
  27.4951         86
  27.5136         86
  27.5322         92
  27.5508         76
  27.5694         83
  27.5879         77
  27.6065        101
  27.6251         78
  27.6437         79
  27.6622         73
  27.6808         81
  27.6994         89
  27.7180         75
  27.7365        108
  27.7551         83
  27.7737         87
  27.7923         91
  27.8108         84
  27.8294         88
  27.8480         75
  27.8666         77
  27.8851         92
  27.9037         94
  27.9223         82
  27.9409         82
  27.9594         84
  27.9780         85
  27.9966         77
  28.0152         69
  28.0337         90
  28.0523         91
  28.0709         76
  28.0895         77
  28.1080         83
  28.1266         92
  28.1452         73
  28.1638         90
  28.1823         91
  28.2009         72
  28.2195         88
  28.2381         69
  28.2567         84
  28.2752         74
  28.2938         99
  28.3124         84
  28.3310         73
  28.3495         64
  28.3681         85
  28.3867         66
  28.4053         74
  28.4238         90
  28.4424         81
  28.4610         62
  28.4796         62
  28.4981         82
  28.5167         75
  28.5353         74
  28.5539         67
  28.5724         77
  28.5910         87
  28.6096         72
  28.6282         86
  28.6467         78
  28.6653         98
  28.6839         72
  28.7025         66
  28.7210         77
  28.7396         87
  28.7582         82
  28.7768         86
  28.7953         72
  28.8139         70
  28.8325         67
  28.8511         75
  28.8696         77
  28.8882         94
  28.9068         75
  28.9254         75
  28.9439         74
  28.9625         81
  28.9811         72
  28.9997         80
  29.0183         74
  29.0368         81
  29.0554         71
  29.0740         70
  29.0926         82
  29.1111         69
  29.1297         87
  29.1483         84
  29.1669         82
  29.1854         93
  29.2040         81
  29.2226         84
  29.2412         86
  29.2597         72
  29.2783         76
  29.2969         90
  29.3155         73
  29.3340         87
  29.3526         79
  29.3712         76
  29.3898         88
  29.4083         78
  29.4269         77
  29.4455         95
  29.4641         72
  29.4826         66
  29.5012         82
  29.5198        103
  29.5384         70
  29.5569         82
  29.5755         67
  29.5941         67
  29.6127         79
  29.6312         82
  29.6498         87
  29.6684         77
  29.6870         89
  29.7055         78
  29.7241         76
  29.7427         63
  29.7613         82
  29.7799         83
  29.7984         83
  29.8170         91
  29.8356         67
  29.8542         81
  29.8727         75
  29.8913         80
  29.9099         72
  29.9285         81
  29.9470         74
  29.9656         66
  29.9842         90
  30.0028         73
  30.0213         66
  30.0399        104
  30.0585         82
  30.0771         89
  30.0956         56
  30.1142         90
  30.1328         84
  30.1514         75
  30.1699         79
  30.1885         74
  30.2071         80
  30.2257         73
  30.2442         77
  30.2628         83
  30.2814         84
  30.3000         86
  30.3185        103
  30.3371        116
  30.3557        150
  30.3743        167
  30.3928        138
  30.4114        117
  30.4300        123
  30.4486        105
  30.4671         97
  30.4857         87
  30.5043         86
  30.5229         92
  30.5415         75
  30.5600         76
  30.5786         78
  30.5972         87
  30.6158         78
  30.6343         69
  30.6529         65
  30.6715         75
  30.6901         68
  30.7086         79
  30.7272         73
  30.7458         64
  30.7644         65
  30.7829         77
  30.8015         63
  30.8201         70
  30.8387         59
  30.8572         68
  30.8758         66
  30.8944         60
  30.9130         79
  30.9315         59
  30.9501         63
  30.9687         59
  30.9873         58
  31.0058         80
  31.0244         71
  31.0430         86
  31.0616         66
  31.0801         72
  31.0987         59
  31.1173         81
  31.1359         74
  31.1544         56
  31.1730         70
  31.1916         57
  31.2102         75
  31.2287         64
  31.2473         74
  31.2659         68
  31.2845         65
  31.3030         67
  31.3216         67
  31.3402         67
  31.3588         73
  31.3774         64
  31.3959         73
  31.4145         65
  31.4331         83
  31.4517         71
  31.4702         72
  31.4888         62
  31.5074         57
  31.5260         75
  31.5445         75
  31.5631         69
  31.5817         66
  31.6003         57
  31.6188         64
  31.6374         78
  31.6560         69
  31.6746         79
  31.6931         63
  31.7117         66
  31.7303         60
  31.7489         69
  31.7674         71
  31.7860         72
  31.8046         66
  31.8232         60
  31.8417         64
  31.8603         73
  31.8789         56
  31.8975         62
  31.9160         46
  31.9346         57
  31.9532         58
  31.9718         62
  31.9903         63
  32.0089         65
  32.0275         62
  32.0461         70
  32.0646         61
  32.0832         64
  32.1018         68
  32.1204         73
  32.1390         68
  32.1575         58
  32.1761         69
  32.1947         68
  32.2133         71
  32.2318         65
  32.2504         62
  32.2690         65
  32.2876         76
  32.3061         46
  32.3247         63
  32.3433         54
  32.3619         58
  32.3804         63
  32.3990         73
  32.4176         71
  32.4362         78
  32.4547         80
  32.4733         82
  32.4919         64
  32.5105         75
  32.5290         69
  32.5476         66
  32.5662         78
  32.5848         65
  32.6033         80
  32.6219         61
  32.6405         60
  32.6591         55
  32.6776         69
  32.6962         55
  32.7148         61
  32.7334         68
  32.7519         57
  32.7705         60
  32.7891         61
  32.8077         56
  32.8262         58
  32.8448         63
  32.8634         56
  32.8820         56
  32.9006         39
  32.9191         63
  32.9377         70
  32.9563         61
  32.9749         57
  32.9934         67
  33.0120         60
  33.0306         56
  33.0492         66
  33.0677         49
  33.0863         62
  33.1049         54
  33.1235         76
  33.1420         59
  33.1606         55
  33.1792         59
  33.1978         57
  33.2163         67
  33.2349         48
  33.2535         65
  33.2721         45
  33.2906         67
  33.3092         55
  33.3278         49
  33.3464         65
  33.3649         60
  33.3835         60
  33.4021         59
  33.4207         54
  33.4392         55
  33.4578         63
  33.4764         33
  33.4950         55
  33.5135         60
  33.5321         70
  33.5507         73
  33.5693         61
  33.5878         66
  33.6064         52
  33.6250         74
  33.6436         56
  33.6622         70
  33.6807         77
  33.6993         67
  33.7179         70
  33.7365         61
  33.7550         61
  33.7736         59
  33.7922         66
  33.8108         38
  33.8293         47
  33.8479         44
  33.8665         60
  33.8851         58
  33.9036         58
  33.9222         58
  33.9408         60
  33.9594         69
  33.9779         47
  33.9965         69
  34.0151         64
  34.0337         46
  34.0522         64
  34.0708         56
  34.0894         55
  34.1080         64
  34.1265         52
  34.1451         61
  34.1637         58
  34.1823         61
  34.2008         55
  34.2194         55
  34.2380         53
  34.2566         57
  34.2751         55
  34.2937         60
  34.3123         47
  34.3309         46
  34.3494         62
  34.3680         76
  34.3866         61
  34.4052         51
  34.4238         58
  34.4423         54
  34.4609         71
  34.4795         67
  34.4981         66
  34.5166         52
  34.5352         68
  34.5538         49
  34.5724         76
  34.5909         68
  34.6095         75
  34.6281         58
  34.6467         60
  34.6652         65
  34.6838         71
  34.7024         64
  34.7210         77
  34.7395         63
  34.7581         74
  34.7767         71
  34.7953         78
  34.8138         65
  34.8324         59
  34.8510         66
  34.8696         55
  34.8881         64
  34.9067         52
  34.9253         63
  34.9439         65
  34.9624         61
  34.9810         50
  34.9996         53
  35.0182         55
  35.0367         46
  35.0553         48
  35.0739         54
  35.0925         49
  35.1110         34
  35.1296         49
  35.1482         51
  35.1668         46
  35.1854         41
  35.2039         52
  35.2225         45
  35.2411         39
  35.2597         47
  35.2782         48
  35.2968         59
  35.3154         51
  35.3340         54
  35.3525         47
  35.3711         52
  35.3897         51
  35.4083         58
  35.4268         50
  35.4454         50
  35.4640         36
  35.4826         37
  35.5011         46
  35.5197         46
  35.5383         38
  35.5569         57
  35.5754         44
  35.5940         59
  35.6126         40
  35.6312         34
  35.6497         47
  35.6683         65
  35.6869         60
  35.7055         53
  35.7240         41
  35.7426         46
  35.7612         56
  35.7798         40
  35.7983         52
  35.8169         51
  35.8355         33
  35.8541         42
  35.8726         58
  35.8912         59
  35.9098         58
  35.9284         61
  35.9469         45
  35.9655         51
  35.9841         47
  36.0027         41
  36.0213         40
  36.0398         48
  36.0584         41
  36.0770         46
  36.0956         52
  36.1141         52
  36.1327         41
  36.1513         40
  36.1699         52
  36.1884         48
  36.2070         51
  36.2256         50
  36.2442         63
  36.2627         46
  36.2813         42
  36.2999         61
  36.3185         48
  36.3370         45
  36.3556         47
  36.3742         45
  36.3928         43
  36.4113         43
  36.4299         58
  36.4485         39
  36.4671         45
  36.4856         52
  36.5042         43
  36.5228         38
  36.5414         44
  36.5599         38
  36.5785         48
  36.5971         51
  36.6157         42
  36.6342         42
  36.6528         44
  36.6714         38
  36.6900         42
  36.7085         43
  36.7271         46
  36.7457         49
  36.7643         56
  36.7829         51
  36.8014         45
  36.8200         52
  36.8386         41
  36.8572         43
  36.8757         50
  36.8943         48
  36.9129         40
  36.9315         45
  36.9500         46
  36.9686         47
  36.9872         50
  37.0058         48
  37.0243         50
  37.0429         47
  37.0615         51
  37.0801         50
  37.0986         52
  37.1172         34
  37.1358         41
  37.1544         44
  37.1729         57
  37.1915         46
  37.2101         40
  37.2287         38
  37.2472         51
  37.2658         53
  37.2844         50
  37.3030         40
  37.3215         41
  37.3401         50
  37.3587         57
  37.3773         57
  37.3958         57
  37.4144         80
  37.4330         74
  37.4516         64
  37.4701         57
  37.4887         59
  37.5073         71
  37.5259         66
  37.5445         45
  37.5630         50
  37.5816         39
  37.6002         58
  37.6188         52
  37.6373         43
  37.6559         41
  37.6745         33
  37.6931         44
  37.7116         27
  37.7302         41
  37.7488         55
  37.7674         36
  37.7859         45
  37.8045         48
  37.8231         25
  37.8417         40
  37.8602         37
  37.8788         43
  37.8974         41
  37.9160         46
  37.9345         44
  37.9531         35
  37.9717         47
  37.9903         43
  38.0088         37
  38.0274         36
  38.0460         47
  38.0646         38
  38.0831         47
  38.1017         39
  38.1203         30
  38.1389         50
  38.1574         45
  38.1760         30
  38.1946         46
  38.2132         45
  38.2317         56
  38.2503         36
  38.2689         53
  38.2875         48
  38.3061         48
  38.3246         44
  38.3432         48
  38.3618         48
  38.3804         36
  38.3989         24
  38.4175         36
  38.4361         32
  38.4547         36
  38.4732         40
  38.4918         38
  38.5104         43
  38.5290         52
  38.5475         43
  38.5661         41
  38.5847         35
  38.6033         36
  38.6218         40
  38.6404         43
  38.6590         45
  38.6776         35
  38.6961         52
  38.7147         36
  38.7333         37
  38.7519         42
  38.7704         39
  38.7890         46
  38.8076         39
  38.8262         38
  38.8447         30
  38.8633         32
  38.8819         36
  38.9005         38
  38.9190         43
  38.9376         33
  38.9562         42
  38.9748         40
  38.9933         31
  39.0119         35
  39.0305         41
  39.0491         33
  39.0677         35
  39.0862         39
  39.1048         36
  39.1234         36
  39.1420         47
  39.1605         46
  39.1791         37
  39.1977         34
  39.2163         32
  39.2348         40
  39.2534         37
  39.2720         41
  39.2906         32
  39.3091         32
  39.3277         27
  39.3463         39
  39.3649         46
  39.3834         41
  39.4020         42
  39.4206         24
  39.4392         33
  39.4577         38
  39.4763         25
  39.4949         38
  39.5135         26
  39.5320         37
  39.5506         46
  39.5692         36
  39.5878         50
  39.6063         44
  39.6249         43
  39.6435         31
  39.6621         34
  39.6806         25
  39.6992         30
  39.7178         36
  39.7364         52
  39.7549         31
  39.7735         35
  39.7921         41
  39.8107         39
  39.8293         37
  39.8478         40
  39.8664         39
  39.8850         37
  39.9036         33
  39.9221         47
  39.9407         35
  39.9593         40
  39.9779         36
  39.9964         37
  40.0150         50
  40.0336         41
  40.0522         43
  40.0707         42
  40.0893         40
  40.1079         25
  40.1265         43
  40.1450         45
  40.1636         28
  40.1822         39
  40.2008         28
  40.2193         31
  40.2379         38
  40.2565         36
  40.2751         44
  40.2936         34
  40.3122         30
  40.3308         42
  40.3494         42
  40.3679         43
  40.3865         35
  40.4051         36
  40.4237         40
  40.4422         38
  40.4608         37
  40.4794         37
  40.4980         41
  40.5165         35
  40.5351         42
  40.5537         31
  40.5723         38
  40.5908         35
  40.6094         35
  40.6280         36
  40.6466         31
  40.6652         39
  40.6837         47
  40.7023         36
  40.7209         33
  40.7395         33
  40.7580         36
  40.7766         42
  40.7952         36
  40.8138         33
  40.8323         33
  40.8509         38
  40.8695         43
  40.8881         35
  40.9066         40
  40.9252         46
  40.9438         54
  40.9624         51
  40.9809         36
  40.9995         40
  41.0181         40
  41.0367         45
  41.0552         31
  41.0738         29
  41.0924         44
  41.1110         34
  41.1295         35
  41.1481         34
  41.1667         34
  41.1853         26
  41.2038         30
  41.2224         37
  41.2410         36
  41.2596         33
  41.2781         32
  41.2967         43
  41.3153         35
  41.3339         39
  41.3524         29
  41.3710         43
  41.3896         35
  41.4082         48
  41.4268         51
  41.4453         39
  41.4639         35
  41.4825         32
  41.5011         34
  41.5196         47
  41.5382         40
  41.5568         39
  41.5754         36
  41.5939         34
  41.6125         36
  41.6311         38
  41.6497         39
  41.6682         42
  41.6868         37
  41.7054         29
  41.7240         42
  41.7425         51
  41.7611         29
  41.7797         44
  41.7983         44
  41.8168         36
  41.8354         42
  41.8540         39
  41.8726         39
  41.8911         40
  41.9097         33
  41.9283         49
  41.9469         48
  41.9654         27
  41.9840         38
  42.0026         32
  42.0212         40
  42.0397         37
  42.0583         37
  42.0769         40
  42.0955         36
  42.1140         27
  42.1326         39
  42.1512         36
  42.1698         42
  42.1884         30
  42.2069         36
  42.2255         40
  42.2441         38
  42.2627         43
  42.2812         29
  42.2998         47
  42.3184         34
  42.3370         44
  42.3555         38
  42.3741         37
  42.3927         43
  42.4113         35
  42.4298         48
  42.4484         33
  42.4670         37
  42.4856         35
  42.5041         27
  42.5227         36
  42.5413         29
  42.5599         36
  42.5784         38
  42.5970         36
  42.6156         37
  42.6342         34
  42.6527         35
  42.6713         41
  42.6899         40
  42.7085         40
  42.7270         43
  42.7456         31
  42.7642         32
  42.7828         40
  42.8013         36
  42.8199         32
  42.8385         35
  42.8571         38
  42.8756         30
  42.8942         36
  42.9128         33
  42.9314         39
  42.9500         35
  42.9685         34
  42.9871         36
  43.0057         45
  43.0243         26
  43.0428         38
  43.0614         42
  43.0800         43
  43.0986         43
  43.1171         30
  43.1357         43
  43.1543         38
  43.1729         47
  43.1914         44
  43.2100         49
  43.2286         54
  43.2472         49
  43.2657         35
  43.2843         38
  43.3029         33
  43.3215         50
  43.3400         42
  43.3586         36
  43.3772         49
  43.3958         41
  43.4143         31
  43.4329         50
  43.4515         58
  43.4701         53
  43.4886         80
  43.5072         50
  43.5258         48
  43.5444         37
  43.5629         45
  43.5815         35
  43.6001         61
  43.6187         44
  43.6372         32
  43.6558         41
  43.6744         42
  43.6930         41
  43.7116         27
  43.7301         32
  43.7487         35
  43.7673         31
  43.7859         39
  43.8044         31
  43.8230         45
  43.8416         42
  43.8602         33
  43.8787         31
  43.8973         37
  43.9159         47
  43.9345         40
  43.9530         33
  43.9716         38
  43.9902         26
  44.0088         38
  44.0273         32
  44.0459         37
  44.0645         25
  44.0831         36
  44.1016         31
  44.1202         30
  44.1388         30
  44.1574         47
  44.1759         33
  44.1945         32
  44.2131         32
  44.2317         39
  44.2502         36
  44.2688         32
  44.2874         42
  44.3060         31
  44.3245         47
  44.3431         32
  44.3617         43
  44.3803         42
  44.3988         35
  44.4174         36
  44.4360         30
  44.4546         40
  44.4732         40
  44.4917         28
  44.5103         36
  44.5289         42
  44.5475         35
  44.5660         42
  44.5846         41
  44.6032         48
  44.6218         36
  44.6403         37
  44.6589         40
  44.6775         40
  44.6961         48
  44.7146         39
  44.7332         46
  44.7518         48
  44.7704         38
  44.7889         39
  44.8075         33
  44.8261         40
  44.8447         29
  44.8632         28
  44.8818         36
  44.9004         28
  44.9190         29
  44.9375         33
  44.9561         35
  44.9747         37
  44.9933         32
  45.0118         41
  45.0304         32
  45.0490         34
  45.0676         43
  45.0861         38
  45.1047         30
  45.1233         34
  45.1419         39
  45.1604         42
  45.1790         41
  45.1976         42
  45.2162         40
  45.2347         29
  45.2533         39
  45.2719         32
  45.2905         36
  45.3091         32
  45.3276         24
  45.3462         35
  45.3648         45
  45.3834         41
  45.4019         40
  45.4205         36
  45.4391         34
  45.4577         40
  45.4762         40
  45.4948         32
  45.5134         24
  45.5320         29
  45.5505         34
  45.5691         33
  45.5877         31
  45.6063         25
  45.6248         34
  45.6434         24
  45.6620         38
  45.6806         36
  45.6991         41
  45.7177         31
  45.7363         39
  45.7549         34
  45.7734         29
  45.7920         39
  45.8106         36
  45.8292         34
  45.8477         32
  45.8663         33
  45.8849         48
  45.9035         36
  45.9220         17
  45.9406         29
  45.9592         43
  45.9778         35
  45.9963         32
  46.0149         22
  46.0335         30
  46.0521         32
  46.0707         27
  46.0892         28
  46.1078         28
  46.1264         23
  46.1450         45
  46.1635         35
  46.1821         37
  46.2007         32
  46.2193         35
  46.2378         32
  46.2564         32
  46.2750         34
  46.2936         39
  46.3121         17
  46.3307         31
  46.3493         40
  46.3679         35
  46.3864         26
  46.4050         36
  46.4236         28
  46.4422         40
  46.4607         30
  46.4793         32
  46.4979         30
  46.5165         25
  46.5350         32
  46.5536         37
  46.5722         40
  46.5908         36
  46.6093         32
  46.6279         35
  46.6465         27
  46.6651         33
  46.6836         29
  46.7022         34
  46.7208         28
  46.7394         32
  46.7579         29
  46.7765         25
  46.7951         29
  46.8137         35
  46.8323         41
  46.8508         36
  46.8694         23
  46.8880         24
  46.9066         39
  46.9251         31
  46.9437         36
  46.9623         28
  46.9809         40
  46.9994         23
  47.0180         30
  47.0366         37
  47.0552         27
  47.0737         38
  47.0923         31
  47.1109         40
  47.1295         31
  47.1480         25
  47.1666         27
  47.1852         29
  47.2038         41
  47.2223         44
  47.2409         21
  47.2595         28
  47.2781         36
  47.2966         38
  47.3152         17
  47.3338         28
  47.3524         25
  47.3709         27
  47.3895         29
  47.4081         23
  47.4267         35
  47.4452         29
  47.4638         25
  47.4824         40
  47.5010         31
  47.5195         29
  47.5381         33
  47.5567         29
  47.5753         46
  47.5939         34
  47.6124         33
  47.6310         27
  47.6496         29
  47.6682         31
  47.6867         31
  47.7053         36
  47.7239         25
  47.7425         34
  47.7610         23
  47.7796         33
  47.7982         37
  47.8168         35
  47.8353         22
  47.8539         26
  47.8725         31
  47.8911         25
  47.9096         24
  47.9282         36
  47.9468         36
  47.9654         36
  47.9839         23
  48.0025         32
  48.0211         27
  48.0397         34
  48.0582         18
  48.0768         30
  48.0954         36
  48.1140         27
  48.1325         34
  48.1511         29
  48.1697         21
  48.1883         34
  48.2068         41
  48.2254         28
  48.2440         20
  48.2626         27
  48.2811         30
  48.2997         27
  48.3183         26
  48.3369         30
  48.3555         29
  48.3740         36
  48.3926         30
  48.4112         46
  48.4298         34
  48.4483         30
  48.4669         39
  48.4855         43
  48.5041         18
  48.5226         22
  48.5412         31
  48.5598         31
  48.5784         31
  48.5969         35
  48.6155         26
  48.6341         38
  48.6527         34
  48.6712         37
  48.6898         30
  48.7084         34
  48.7270         25
  48.7455         40
  48.7641         46
  48.7827         33
  48.8013         35
  48.8198         39
  48.8384         28
  48.8570         34
  48.8756         45
  48.8941         40
  48.9127         48
  48.9313         59
  48.9499         54
  48.9684         45
  48.9870         42
  49.0056         44
  49.0242         35
  49.0427         49
  49.0613         43
  49.0799         57
  49.0985         35
  49.1171         45
  49.1356         51
  49.1542         36
  49.1728         33
  49.1914         24
  49.2099         40
  49.2285         35
  49.2471         40
  49.2657         25
  49.2842         32
  49.3028         41
  49.3214         37
  49.3400         30
  49.3585         23
  49.3771         29
  49.3957         31
  49.4143         34
  49.4328         33
  49.4514         32
  49.4700         29
  49.4886         37
  49.5071         28
  49.5257         25
  49.5443         29
  49.5629         30
  49.5814         30
  49.6000         31
  49.6186         27
  49.6372         39
  49.6557         38
  49.6743         29
  49.6929         34
  49.7115         27
  49.7300         29
  49.7486         29
  49.7672         39
  49.7858         37
  49.8043         27
  49.8229         23
  49.8415         24
  49.8601         36
  49.8786         36
  49.8972         32
  49.9158         28
  49.9344         36
  49.9530         28
  49.9715         35
  49.9901         30
  50.0087         31
  50.0273         31
  50.0458         20
  50.0644         30
  50.0830         30
  50.1016         31
  50.1201         31
  50.1387         50
  50.1573         33
  50.1759         26
  50.1944         33
  50.2130         26
  50.2316         39
  50.2502         30
  50.2687         26
  50.2873         28
  50.3059         29
  50.3245         37
  50.3430         34
  50.3616         35
  50.3802         23
  50.3988         33
  50.4173         25
  50.4359         26
  50.4545         32
  50.4731         31
  50.4916         41
  50.5102         29
  50.5288         31
  50.5474         30
  50.5659         28
  50.5845         36
  50.6031         27
  50.6217         22
  50.6402         31
  50.6588         28
  50.6774         42
  50.6960         28
  50.7146         35
  50.7331         32
  50.7517         33
  50.7703         30
  50.7889         25
  50.8074         26
  50.8260         33
  50.8446         27
  50.8632         34
  50.8817         39
  50.9003         21
  50.9189         25
  50.9375         33
  50.9560         31
  50.9746         28
  50.9932         32
  51.0118         27
  51.0303         39
  51.0489         26
  51.0675         27
  51.0861         34
  51.1046         31
  51.1232         27
  51.1418         32
  51.1604         27
  51.1789         28
  51.1975         21
  51.2161         32
  51.2347         26
  51.2532         33
  51.2718         27
  51.2904         30
  51.3090         38
  51.3275         30
  51.3461         30
  51.3647         33
  51.3833         35
  51.4018         40
  51.4204         37
  51.4390         36
  51.4576         38
  51.4762         19
  51.4947         37
  51.5133         34
  51.5319         26
  51.5505         28
  51.5690         51
  51.5876         16
  51.6062         31
  51.6248         56
  51.6433         33
  51.6619         42
  51.6805         37
  51.6991         31
  51.7176         37
  51.7362         29
  51.7548         23
  51.7734         26
  51.7919         37
  51.8105         30
  51.8291         29
  51.8477         26
  51.8662         30
  51.8848         38
  51.9034         31
  51.9220         36
  51.9405         44
  51.9591         27
  51.9777         30
  51.9963         44
  52.0148         24
  52.0334         34
  52.0520         24
  52.0706         28
  52.0891         25
  52.1077         34
  52.1263         26
  52.1449         32
  52.1634         20
  52.1820         35
  52.2006         22
  52.2192         33
  52.2378         29
  52.2563         31
  52.2749         30
  52.2935         40
  52.3121         34
  52.3306         32
  52.3492         28
  52.3678         36
  52.3864         22
  52.4049         24
  52.4235         21
  52.4421         32
  52.4607         23
  52.4792         22
  52.4978         27
  52.5164         24
  52.5350         20
  52.5535         25
  52.5721         28
  52.5907         33
  52.6093         28
  52.6278         28
  52.6464         24
  52.6650         36
  52.6836         23
  52.7021         29
  52.7207         23
  52.7393         39
  52.7579         28
  52.7764         24
  52.7950         41
  52.8136         26
  52.8322         29
  52.8507         37
  52.8693         40
  52.8879         28
  52.9065         31
  52.9250         35
  52.9436         36
  52.9622         33
  52.9808         23
  52.9994         21
  53.0179         31
  53.0365         33
  53.0551         31
  53.0737         37
  53.0922         30
  53.1108         27
  53.1294         33
  53.1480         27
  53.1665         30
  53.1851         25
  53.2037         21
  53.2223         36
  53.2408         26
  53.2594         26
  53.2780         23
  53.2966         36
  53.3151         38
  53.3337         17
  53.3523         37
  53.3709         26
  53.3894         27
  53.4080         34
  53.4266         27
  53.4452         28
  53.4637         32
  53.4823         24
  53.5009         40
  53.5195         25
  53.5380         31
  53.5566         28
  53.5752         21
  53.5938         20
  53.6123         30
  53.6309         37
  53.6495         24
  53.6681         32
  53.6866         17
  53.7052         29
  53.7238         29
  53.7424         28
  53.7610         22
  53.7795         33
  53.7981         32
  53.8167         29
  53.8353         25
  53.8538         30
  53.8724         27
  53.8910         34
  53.9096         32
  53.9281         34
  53.9467         26
  53.9653         42
  53.9839         37
  54.0024         21
  54.0210         39
  54.0396         39
  54.0582         35
  54.0767         35
  54.0953         25
  54.1139         46
  54.1325         36
  54.1510         25
  54.1696         17
  54.1882         29
  54.2068         32
  54.2253         27
  54.2439         19
  54.2625         25
  54.2811         28
  54.2996         36
  54.3182         27
  54.3368         34
  54.3554         36
  54.3739         30
  54.3925         29
  54.4111         34
  54.4297         29
  54.4482         31
  54.4668         43
  54.4854         24
  54.5040         31
  54.5225         31
  54.5411         27
  54.5597         23
  54.5783         20
  54.5969         24
  54.6154         30
  54.6340         25
  54.6526         23
  54.6712         30
  54.6897         30
  54.7083         26
  54.7269         22
  54.7455         31
  54.7640         36
  54.7826         30
  54.8012         26
  54.8198         29
  54.8383         40
  54.8569         26
  54.8755         23
  54.8941         35
  54.9126         25
  54.9312         35
  54.9498         26
  54.9684         40
  54.9869         25
  55.0055         28
  55.0241         23
  55.0427         30
  55.0612         19
  55.0798         26
  55.0984         32
  55.1170         30
  55.1355         27
  55.1541         26
  55.1727         18
  55.1913         23
  55.2098         20
  55.2284         31
  55.2470         34
  55.2656         17
  55.2841         33
  55.3027         26
  55.3213         20
  55.3399         30
  55.3585         27
  55.3770         29
  55.3956         24
  55.4142         29
  55.4328         31
  55.4513         15
  55.4699         28
  55.4885         23
  55.5071         26
  55.5256         41
  55.5442         31
  55.5628         27
  55.5814         22
  55.5999         26
  55.6185         32
  55.6371         19
  55.6557         24
  55.6742         32
  55.6928         27
  55.7114         31
  55.7300         27
  55.7485         28
  55.7671         23
  55.7857         33
  55.8043         30
  55.8228         33
  55.8414         35
  55.8600         24
  55.8786         34
  55.8971         36
  55.9157         38
  55.9343         29
  55.9529         28
  55.9714         13
  55.9900         40
  56.0086         22
  56.0272         34
  56.0457         26
  56.0643         30
  56.0829         13
  56.1015         23
  56.1201         34
  56.1386         24
  56.1572         33
  56.1758         30
  56.1944         31
  56.2129         34
  56.2315         28
  56.2501         26
  56.2687         30
  56.2872         40
  56.3058         20
  56.3244         38
  56.3430         35
  56.3615         34
  56.3801         30
  56.3987         22
  56.4173         29
  56.4358         31
  56.4544         25
  56.4730         31
  56.4916         32
  56.5101         35
  56.5287         18
  56.5473         34
  56.5659         31
  56.5844         24
  56.6030         30
  56.6216         30
  56.6402         17
  56.6587         32
  56.6773         23
  56.6959         27
  56.7145         25
  56.7330         21
  56.7516         28
  56.7702         30
  56.7888         26
  56.8073         20
  56.8259         20
  56.8445         26
  56.8631         27
  56.8817         31
  56.9002         14
  56.9188         35
  56.9374         38
  56.9560         30
  56.9745         33
  56.9931         23
  57.0117         29
  57.0303         28
  57.0488         22
  57.0674         34
  57.0860         26
  57.1046         31
  57.1231         28
  57.1417         25
  57.1603         29
  57.1789         22
  57.1974         31
  57.2160         29
  57.2346         18
  57.2532         31
  57.2717         30
  57.2903         32
  57.3089         24
  57.3275         28
  57.3460         28
  57.3646         27
  57.3832         31
  57.4018         22
  57.4203         26
  57.4389         35
  57.4575         20
  57.4761         32
  57.4946         24
  57.5132         22
  57.5318         36
  57.5504         27
  57.5689         22
  57.5875         15
  57.6061         26
  57.6247         22
  57.6433         26
  57.6618         24
  57.6804         28
  57.6990         41
  57.7176         39
  57.7361         25
  57.7547         25
  57.7733         32
  57.7919         31
  57.8104         35
  57.8290         29
  57.8476         28
  57.8662         35
  57.8847         29
  57.9033         32
  57.9219         39
  57.9405         15
  57.9590         26
  57.9776         33
  57.9962         34
  58.0148         23
  58.0333         35
  58.0519         32
  58.0705         28
  58.0891         34
  58.1076         35
  58.1262         23
  58.1448         27
  58.1634         23
  58.1819         27
  58.2005         27
  58.2191         15
  58.2377         37
  58.2562         26
  58.2748         30
  58.2934         31
  58.3120         31
  58.3305         38
  58.3491         32
  58.3677         30
  58.3863         31
  58.4049         26
  58.4234         24
  58.4420         21
  58.4606         18
  58.4792         19
  58.4977         18
  58.5163         25
  58.5349         27
  58.5535         22
  58.5720         18
  58.5906         28
  58.6092         25
  58.6278         25
  58.6463         26
  58.6649         31
  58.6835         23
  58.7021         42
  58.7206         28
  58.7392         24
  58.7578         21
  58.7764         25
  58.7949         28
  58.8135         32
  58.8321         29
  58.8507         17
  58.8692         42
  58.8878         23
  58.9064         25
  58.9250         37
  58.9435         20
  58.9621         25
  58.9807         25
  58.9993         22
  59.0178         34
  59.0364         23
  59.0550         31
  59.0736         34
  59.0921         22
  59.1107         34
  59.1293         25
  59.1479         26
  59.1664         23
  59.1850         19
  59.2036         25
  59.2222         34
  59.2408         27
  59.2593         34
  59.2779         26
  59.2965         25
  59.3151         18
  59.3336         18
  59.3522         26
  59.3708         26
  59.3894         40
  59.4079         33
  59.4265         37
  59.4451         34
  59.4637         31
  59.4822         18
  59.5008         25
  59.5194         31
  59.5380         20
  59.5565         23
  59.5751         23
  59.5937         24
  59.6123         33
  59.6308         22
  59.6494         22
  59.6680         25
  59.6866         26
  59.7051         26
  59.7237         28
  59.7423         28
  59.7609         26
  59.7794         21
  59.7980         27
  59.8166         27
  59.8352         22
  59.8537         21
  59.8723         17
  59.8909         25
  59.9095         29
  59.9280         31
  59.9466         23
  59.9652         29
  59.9838         18
  60.0024         23
