; (content of file Y:\Sam\Apurva-07-20-2022\puck4\ML_20220718_15_SJD_0_LaB6-2min.raw)
_FILEVERSION = 3
_SAMPLE = ML_20220718_15_SJD_0_LaB6-2min
_+SAMPLE = 
_SITE = USA
_USER = Administrator
_GONIOMETER_CODE = 20
; Goniometer : D8 theta/2theta, stage : Unknown
_ATTACHMENTS_CODE = 0
_GONIOMETER_RADIUS = 200.5
_FIXED_DIVSLIT = 0.6
_FIXED_SAMPLESLIT = 0
_SOLLER_SLITS = 2
_FIXED_DETSLIT = 9.55
_MONOCHROMATOR = 0
; Incident beam monochromator : None
_SOLLER_SLITS_2 = N
_THIN_FILM = N
_BETA_FILTER = Y
_FIXED_ANTISLIT = 5.89
_ANALYZER_CODE = 0
; Received beam analyzer : None
_DATEMEASURED = "26-Jul-2022 09:49:29"
_WL_UNIT = A
_WL1 = 1.5406
_WL2 = 1.54439
_WL3 = 1.39222
_WLRATIO = 0.5
_ANODE = Cu
_V4_INF_CREATOR = XRDWizard
_V4_INF_CREATOR_VERSION = V2.9.0.22
_V4_INF_WIZARD_VERSION = V2.9.0.22
_V4_INF_WIZARD_ADDINS = V2.9.0.22
_V4_INF_WIZARD_DOCTYPE = XRD
_V4_INF_OSUSER = McQueenLab
_V4_INF_USER = Administrator
_V4_INF_SITE = USA
_V4_INF_SAMPLEID = ML_20220718_15_SJD_0_LaB6-2min

; Data for range 1
_DRIVE = COUPLED
_STEPTIME = 5.64
_STEPSIZE = 0.0185756
_STEPMODE = C
_START = 5
_THETA = 2.5
_2THETA = 5
_KHI = 0
_PHI = 0
_X = 0
_Y = 0
_Z = 0
_DETECTOR = 5
; Detector type : Unknown
_DETECTORSLIT = unkn
_AUX1 = 0
_AUX2 = 0
_AUX3 = 0
_TIMESTARTED = 15
_TEMP_RATE = -1
_TEMP_DELAY = -1
_KV = 40
_MA = 40
_RANGE_WL = 1.5406
_3DPLANE = 0
_V4_ADDITIONALDETECTOR = 257
_V4_PSD2THETA = 3.3706
_V4_PSDCHANNEL1 = 0
_V4_PSDAPERTURE = 12.68
_V4_PSDTYPE = 5
_V4_PSDFIXED = 0
_V4_COUNTERS_MASK = 4096
_V4_DRIVES_MASK = 0
_V4_ENCODERS_MASK = 0
_2THETACOUNTS = 1
; 2THETA  PSD
   5.0000        161
   5.0186        127
   5.0372        134
   5.0557        138
   5.0743        133
   5.0929        139
   5.1115        121
   5.1300        136
   5.1486        153
   5.1672        128
   5.1858        141
   5.2043        121
   5.2229        120
   5.2415        121
   5.2601        114
   5.2786        116
   5.2972        105
   5.3158        128
   5.3344        118
   5.3529        116
   5.3715        116
   5.3901        125
   5.4087         98
   5.4272        121
   5.4458        107
   5.4644        146
   5.4830        110
   5.5015        118
   5.5201        100
   5.5387        126
   5.5573         99
   5.5758         99
   5.5944        106
   5.6130        101
   5.6316         91
   5.6501        119
   5.6687         93
   5.6873        115
   5.7059        111
   5.7244         93
   5.7430         96
   5.7616        101
   5.7802         89
   5.7988        104
   5.8173        122
   5.8359        106
   5.8545        105
   5.8731        107
   5.8916        116
   5.9102        108
   5.9288        102
   5.9474         99
   5.9659        109
   5.9845        107
   6.0031         88
   6.0217        101
   6.0402         87
   6.0588         95
   6.0774         85
   6.0960         91
   6.1145         88
   6.1331         92
   6.1517        103
   6.1703         89
   6.1888        101
   6.2074         95
   6.2260         99
   6.2446         96
   6.2631         99
   6.2817         97
   6.3003         72
   6.3189        104
   6.3374         89
   6.3560         95
   6.3746         96
   6.3932         80
   6.4117         86
   6.4303        102
   6.4489         98
   6.4675         72
   6.4860        102
   6.5046         83
   6.5232         87
   6.5418         99
   6.5604        109
   6.5789         84
   6.5975         96
   6.6161         83
   6.6347         95
   6.6532         86
   6.6718         76
   6.6904        115
   6.7090         92
   6.7275         84
   6.7461         69
   6.7647         80
   6.7833         97
   6.8018         71
   6.8204         88
   6.8390         87
   6.8576         89
   6.8761         63
   6.8947         94
   6.9133         77
   6.9319         82
   6.9504         83
   6.9690         81
   6.9876         79
   7.0062         70
   7.0247         82
   7.0433         85
   7.0619         78
   7.0805         74
   7.0990         77
   7.1176         72
   7.1362         67
   7.1548         88
   7.1733         88
   7.1919         81
   7.2105         80
   7.2291         79
   7.2476         88
   7.2662         77
   7.2848         75
   7.3034         75
   7.3220         81
   7.3405         69
   7.3591         64
   7.3777         77
   7.3963         83
   7.4148         93
   7.4334         79
   7.4520         80
   7.4706         81
   7.4891         70
   7.5077         82
   7.5263         84
   7.5449         85
   7.5634        100
   7.5820         90
   7.6006         84
   7.6192         77
   7.6377        129
   7.6563         86
   7.6749         86
   7.6935        102
   7.7120         82
   7.7306         94
   7.7492         74
   7.7678         81
   7.7863         91
   7.8049         91
   7.8235         88
   7.8421         83
   7.8606         97
   7.8792         91
   7.8978         72
   7.9164         84
   7.9349         87
   7.9535         97
   7.9721         92
   7.9907         94
   8.0092         84
   8.0278        117
   8.0464        114
   8.0650         96
   8.0835        114
   8.1021         93
   8.1207        115
   8.1393        104
   8.1579         83
   8.1764         98
   8.1950         90
   8.2136        100
   8.2322         88
   8.2507         95
   8.2693         86
   8.2879         86
   8.3065         95
   8.3250        108
   8.3436         99
   8.3622        103
   8.3808         89
   8.3993        103
   8.4179        107
   8.4365        104
   8.4551        106
   8.4736         97
   8.4922        113
   8.5108        111
   8.5294         85
   8.5479        120
   8.5665         96
   8.5851         89
   8.6037        106
   8.6222        105
   8.6408        116
   8.6594        124
   8.6780         90
   8.6965        106
   8.7151         92
   8.7337        101
   8.7523        113
   8.7708        100
   8.7894         92
   8.8080        106
   8.8266        114
   8.8451         91
   8.8637        110
   8.8823         92
   8.9009         98
   8.9195         80
   8.9380        106
   8.9566         99
   8.9752        101
   8.9938         90
   9.0123        102
   9.0309        107
   9.0495         90
   9.0681        105
   9.0866         98
   9.1052        111
   9.1238        121
   9.1424        110
   9.1609        107
   9.1795        125
   9.1981         93
   9.2167        119
   9.2352         99
   9.2538        115
   9.2724        111
   9.2910        101
   9.3095         98
   9.3281        118
   9.3467        126
   9.3653        114
   9.3838         90
   9.4024         99
   9.4210        117
   9.4396        110
   9.4581         99
   9.4767         96
   9.4953        129
   9.5139        116
   9.5324        108
   9.5510        115
   9.5696        121
   9.5882        107
   9.6067        100
   9.6253        117
   9.6439        121
   9.6625        118
   9.6811        109
   9.6996        112
   9.7182         97
   9.7368        101
   9.7554         91
   9.7739         89
   9.7925        110
   9.8111        101
   9.8297        105
   9.8482        116
   9.8668        123
   9.8854        116
   9.9040        119
   9.9225        123
   9.9411        121
   9.9597        115
   9.9783        128
   9.9968        107
  10.0154        106
  10.0340        108
  10.0526        124
  10.0711        108
  10.0897        108
  10.1083        133
  10.1269        112
  10.1454        109
  10.1640        127
  10.1826        129
  10.2012        137
  10.2197        119
  10.2383        109
  10.2569        127
  10.2755        118
  10.2940        124
  10.3126        109
  10.3312        119
  10.3498        120
  10.3683        108
  10.3869        106
  10.4055        127
  10.4241        121
  10.4427        122
  10.4612        125
  10.4798        139
  10.4984        113
  10.5170        134
  10.5355        102
  10.5541        131
  10.5727        113
  10.5913        129
  10.6098        124
  10.6284        113
  10.6470        134
  10.6656        106
  10.6841        108
  10.7027        121
  10.7213        116
  10.7399        133
  10.7584        122
  10.7770        117
  10.7956        137
  10.8142        141
  10.8327        120
  10.8513        127
  10.8699        126
  10.8885        112
  10.9070        103
  10.9256        132
  10.9442        126
  10.9628         97
  10.9813        104
  10.9999        148
  11.0185        141
  11.0371        113
  11.0556        111
  11.0742        119
  11.0928        114
  11.1114        129
  11.1299        103
  11.1485        133
  11.1671        113
  11.1857        113
  11.2043        114
  11.2228        103
  11.2414        120
  11.2600        144
  11.2786        102
  11.2971        137
  11.3157        109
  11.3343        119
  11.3529        112
  11.3714        126
  11.3900        119
  11.4086        121
  11.4272        122
  11.4457        106
  11.4643        121
  11.4829        115
  11.5015         98
  11.5200        124
  11.5386        124
  11.5572        120
  11.5758        125
  11.5943        107
  11.6129        116
  11.6315        109
  11.6501        126
  11.6686        102
  11.6872        122
  11.7058        115
  11.7244        124
  11.7429        120
  11.7615        114
  11.7801        130
  11.7987        115
  11.8172        121
  11.8358        124
  11.8544        126
  11.8730        106
  11.8915        105
  11.9101        106
  11.9287        124
  11.9473        124
  11.9659        109
  11.9844        104
  12.0030        131
  12.0216        110
  12.0402        110
  12.0587        108
  12.0773        144
  12.0959         96
  12.1145        126
  12.1330        108
  12.1516         99
  12.1702        121
  12.1888        104
  12.2073        113
  12.2259        116
  12.2445        111
  12.2631        132
  12.2816        110
  12.3002         74
  12.3188        125
  12.3374        101
  12.3559        122
  12.3745         94
  12.3931        121
  12.4117         93
  12.4302        113
  12.4488         95
  12.4674         98
  12.4860         89
  12.5045        113
  12.5231        106
  12.5417        118
  12.5603        102
  12.5788        103
  12.5974         91
  12.6160        111
  12.6346        107
  12.6531         85
  12.6717        108
  12.6903        128
  12.7089        110
  12.7274        102
  12.7460         93
  12.7646         97
  12.7832         98
  12.8018         86
  12.8203        106
  12.8389        106
  12.8575        104
  12.8761         93
  12.8946         91
  12.9132        108
  12.9318         95
  12.9504         88
  12.9689         96
  12.9875        103
  13.0061         92
  13.0247        106
  13.0432        112
  13.0618        100
  13.0804        104
  13.0990        113
  13.1175        103
  13.1361        101
  13.1547         92
  13.1733         96
  13.1918        101
  13.2104        105
  13.2290        109
  13.2476        107
  13.2661         95
  13.2847         88
  13.3033         81
  13.3219        102
  13.3404         86
  13.3590         81
  13.3776        114
  13.3962         81
  13.4147         89
  13.4333        105
  13.4519         90
  13.4705         99
  13.4890         96
  13.5076         84
  13.5262        105
  13.5448         98
  13.5634         89
  13.5819         82
  13.6005         99
  13.6191         90
  13.6377         99
  13.6562        119
  13.6748         81
  13.6934        103
  13.7120         88
  13.7305        119
  13.7491        109
  13.7677         97
  13.7863         89
  13.8048        117
  13.8234         98
  13.8420         82
  13.8606         88
  13.8791        101
  13.8977         89
  13.9163         90
  13.9349         83
  13.9534         90
  13.9720         94
  13.9906         83
  14.0092        114
  14.0277         91
  14.0463         70
  14.0649         96
  14.0835         82
  14.1020         87
  14.1206         90
  14.1392         82
  14.1578        101
  14.1763         85
  14.1949         73
  14.2135         87
  14.2321         87
  14.2506        102
  14.2692         91
  14.2878         74
  14.3064         98
  14.3250        106
  14.3435         89
  14.3621         91
  14.3807         90
  14.3993         82
  14.4178         83
  14.4364         96
  14.4550         85
  14.4736         94
  14.4921         72
  14.5107         96
  14.5293         83
  14.5479         82
  14.5664         81
  14.5850         93
  14.6036         88
  14.6222        109
  14.6407         84
  14.6593         81
  14.6779         95
  14.6965         71
  14.7150         86
  14.7336         98
  14.7522         72
  14.7708         71
  14.7893         95
  14.8079         78
  14.8265         84
  14.8451         79
  14.8636         94
  14.8822         94
  14.9008         82
  14.9194         75
  14.9379         82
  14.9565         87
  14.9751         98
  14.9937         88
  15.0122         85
  15.0308         79
  15.0494         84
  15.0680         84
  15.0866         86
  15.1051         80
  15.1237         74
  15.1423         65
  15.1609         84
  15.1794         87
  15.1980         77
  15.2166         93
  15.2352         97
  15.2537         75
  15.2723         88
  15.2909         72
  15.3095         98
  15.3280         85
  15.3466         65
  15.3652         81
  15.3838         64
  15.4023         78
  15.4209         73
  15.4395         77
  15.4581         88
  15.4766         72
  15.4952         93
  15.5138         87
  15.5324         75
  15.5509         71
  15.5695         84
  15.5881         72
  15.6067         81
  15.6252         79
  15.6438         65
  15.6624         71
  15.6810         63
  15.6995         89
  15.7181         90
  15.7367         87
  15.7553         87
  15.7738         88
  15.7924         90
  15.8110         85
  15.8296         70
  15.8482         76
  15.8667         74
  15.8853         88
  15.9039         82
  15.9225         78
  15.9410         71
  15.9596         91
  15.9782         95
  15.9968         64
  16.0153         81
  16.0339         88
  16.0525         90
  16.0711         79
  16.0896         76
  16.1082         83
  16.1268         83
  16.1454         75
  16.1639         69
  16.1825         77
  16.2011         91
  16.2197         74
  16.2382         82
  16.2568         78
  16.2754         80
  16.2940         90
  16.3125         73
  16.3311         79
  16.3497         95
  16.3683         74
  16.3868         64
  16.4054         82
  16.4240         93
  16.4426         81
  16.4611         89
  16.4797         77
  16.4983         89
  16.5169        108
  16.5354         85
  16.5540         73
  16.5726         60
  16.5912         82
  16.6097         71
  16.6283         88
  16.6469         71
  16.6655         86
  16.6841         88
  16.7026         90
  16.7212         79
  16.7398         78
  16.7584         75
  16.7769         70
  16.7955         82
  16.8141         85
  16.8327         72
  16.8512         77
  16.8698         67
  16.8884         99
  16.9070         67
  16.9255         92
  16.9441         75
  16.9627         99
  16.9813         78
  16.9998         78
  17.0184         91
  17.0370         81
  17.0556         68
  17.0741         79
  17.0927         70
  17.1113         77
  17.1299         75
  17.1484         84
  17.1670         76
  17.1856         66
  17.2042         89
  17.2227         79
  17.2413         85
  17.2599         79
  17.2785         77
  17.2970        102
  17.3156         68
  17.3342         89
  17.3528         73
  17.3713         83
  17.3899         84
  17.4085         81
  17.4271         94
  17.4457         87
  17.4642         70
  17.4828        103
  17.5014         72
  17.5200         94
  17.5385         87
  17.5571        103
  17.5757         88
  17.5943         75
  17.6128         65
  17.6314         76
  17.6500         85
  17.6686         88
  17.6871         86
  17.7057         84
  17.7243         83
  17.7429         85
  17.7614        102
  17.7800         96
  17.7986         91
  17.8172         80
  17.8357         90
  17.8543         89
  17.8729         88
  17.8915         68
  17.9100         78
  17.9286         89
  17.9472         87
  17.9658         84
  17.9843         81
  18.0029         89
  18.0215         85
  18.0401         84
  18.0586         84
  18.0772         74
  18.0958         77
  18.1144        100
  18.1329         78
  18.1515         82
  18.1701         73
  18.1887         78
  18.2073         83
  18.2258         69
  18.2444         78
  18.2630         87
  18.2816         85
  18.3001         85
  18.3187         75
  18.3373         68
  18.3559         83
  18.3744         87
  18.3930         82
  18.4116         81
  18.4302         82
  18.4487         87
  18.4673        101
  18.4859         83
  18.5045         88
  18.5230         80
  18.5416         81
  18.5602         90
  18.5788         88
  18.5973         71
  18.6159         88
  18.6345         78
  18.6531         72
  18.6716         80
  18.6902         92
  18.7088         96
  18.7274         85
  18.7459         74
  18.7645         66
  18.7831         79
  18.8017         73
  18.8202         75
  18.8388         67
  18.8574         89
  18.8760         92
  18.8945         86
  18.9131         83
  18.9317         90
  18.9503         75
  18.9689         84
  18.9874         71
  19.0060         63
  19.0246         71
  19.0432         82
  19.0617         91
  19.0803         88
  19.0989         91
  19.1175         86
  19.1360         98
  19.1546         81
  19.1732         96
  19.1918         80
  19.2103         98
  19.2289         96
  19.2475         95
  19.2661         85
  19.2846         83
  19.3032         90
  19.3218        102
  19.3404         85
  19.3589         65
  19.3775         82
  19.3961         85
  19.4147         83
  19.4332         96
  19.4518         81
  19.4704         87
  19.4890         94
  19.5075         88
  19.5261         86
  19.5447         82
  19.5633         91
  19.5818         76
  19.6004         82
  19.6190         89
  19.6376         86
  19.6561         82
  19.6747         81
  19.6933         99
  19.7119         88
  19.7305         68
  19.7490         74
  19.7676        100
  19.7862         99
  19.8048         82
  19.8233         75
  19.8419         73
  19.8605         89
  19.8791         83
  19.8976         80
  19.9162        114
  19.9348         93
  19.9534         86
  19.9719         93
  19.9905         75
  20.0091         76
  20.0277         78
  20.0462         82
  20.0648         90
  20.0834         74
  20.1020         77
  20.1205         86
  20.1391         88
  20.1577         96
  20.1763         92
  20.1948         85
  20.2134         85
  20.2320         92
  20.2506         92
  20.2691         99
  20.2877         83
  20.3063         92
  20.3249         84
  20.3434         95
  20.3620         79
  20.3806         96
  20.3992         87
  20.4177         91
  20.4363         92
  20.4549         89
  20.4735         94
  20.4921         97
  20.5106         91
  20.5292         89
  20.5478         89
  20.5664         88
  20.5849        100
  20.6035         82
  20.6221         99
  20.6407        105
  20.6592         95
  20.6778         87
  20.6964         86
  20.7150         92
  20.7335        101
  20.7521         93
  20.7707         93
  20.7893         86
  20.8078        109
  20.8264         78
  20.8450         99
  20.8636         92
  20.8821         91
  20.9007         93
  20.9193         96
  20.9379        104
  20.9564         91
  20.9750        100
  20.9936        120
  21.0122         91
  21.0307         94
  21.0493         84
  21.0679        106
  21.0865         82
  21.1050         78
  21.1236        106
  21.1422        101
  21.1608        118
  21.1793        125
  21.1979        135
  21.2165        141
  21.2351        152
  21.2537        154
  21.2722        154
  21.2908        143
  21.3094        169
  21.3280        188
  21.3465        228
  21.3651        269
  21.3837        197
  21.4023        179
  21.4208        165
  21.4394        143
  21.4580        119
  21.4766        104
  21.4951         89
  21.5137        118
  21.5323         78
  21.5509        102
  21.5694         97
  21.5880         95
  21.6066        106
  21.6252        105
  21.6437        104
  21.6623         86
  21.6809        107
  21.6995        105
  21.7180         79
  21.7366        100
  21.7552        109
  21.7738         93
  21.7923         83
  21.8109         94
  21.8295        115
  21.8481         88
  21.8666        101
  21.8852         95
  21.9038         95
  21.9224        100
  21.9409        110
  21.9595         86
  21.9781        122
  21.9967         94
  22.0152        117
  22.0338        104
  22.0524         94
  22.0710         79
  22.0896        119
  22.1081        100
  22.1267         90
  22.1453         93
  22.1639        105
  22.1824        108
  22.2010        101
  22.2196        102
  22.2382         93
  22.2567        101
  22.2753        108
  22.2939        105
  22.3125         88
  22.3310         94
  22.3496        101
  22.3682        108
  22.3868         90
  22.4053        104
  22.4239         96
  22.4425         98
  22.4611        112
  22.4796         86
  22.4982         99
  22.5168         94
  22.5354         89
  22.5539        110
  22.5725        105
  22.5911         99
  22.6097        102
  22.6282        103
  22.6468         88
  22.6654         89
  22.6840         98
  22.7025        108
  22.7211        101
  22.7397         88
  22.7583        104
  22.7768         88
  22.7954        122
  22.8140         91
  22.8326         91
  22.8512         75
  22.8697        100
  22.8883        100
  22.9069        102
  22.9255        105
  22.9440        113
  22.9626        111
  22.9812         86
  22.9998        102
  23.0183        127
  23.0369         91
  23.0555        109
  23.0741        111
  23.0926        101
  23.1112         81
  23.1298         95
  23.1484        101
  23.1669         96
  23.1855         89
  23.2041         81
  23.2227        102
  23.2412        102
  23.2598        106
  23.2784         97
  23.2970         90
  23.3155         99
  23.3341        104
  23.3527         97
  23.3713        116
  23.3898         97
  23.4084        122
  23.4270        101
  23.4456         94
  23.4641         91
  23.4827        101
  23.5013         84
  23.5199         85
  23.5384        109
  23.5570         92
  23.5756        106
  23.5942        105
  23.6128         88
  23.6313        108
  23.6499        102
  23.6685        110
  23.6871        113
  23.7056         97
  23.7242         95
  23.7428        103
  23.7614         99
  23.7799         92
  23.7985        100
  23.8171         97
  23.8357        106
  23.8542        108
  23.8728         99
  23.8914        100
  23.9100         90
  23.9285        110
  23.9471         89
  23.9657         97
  23.9843        100
  24.0028         92
  24.0214         99
  24.0400        105
  24.0586         97
  24.0771         95
  24.0957         93
  24.1143         90
  24.1329        101
  24.1514        101
  24.1700        101
  24.1886        112
  24.2072        105
  24.2257        114
  24.2443        120
  24.2629        114
  24.2815        111
  24.3000        108
  24.3186        102
  24.3372        114
  24.3558        107
  24.3744         83
  24.3929        113
  24.4115        103
  24.4301         95
  24.4487        112
  24.4672        109
  24.4858        115
  24.5044        118
  24.5230        100
  24.5415        103
  24.5601        111
  24.5787         90
  24.5973         93
  24.6158        105
  24.6344        101
  24.6530         89
  24.6716         98
  24.6901        111
  24.7087         88
  24.7273         95
  24.7459         96
  24.7644        100
  24.7830        110
  24.8016         99
  24.8202        115
  24.8387         91
  24.8573         95
  24.8759        108
  24.8945        113
  24.9130        100
  24.9316         85
  24.9502        102
  24.9688        119
  24.9873        112
  25.0059        110
  25.0245        105
  25.0431         93
  25.0616        101
  25.0802        105
  25.0988        103
  25.1174        106
  25.1360         99
  25.1545         96
  25.1731         99
  25.1917        107
  25.2103        107
  25.2288         88
  25.2474        105
  25.2660         74
  25.2846        105
  25.3031        109
  25.3217         99
  25.3403         98
  25.3589         90
  25.3774         86
  25.3960        109
  25.4146        100
  25.4332         90
  25.4517         97
  25.4703        101
  25.4889        120
  25.5075        102
  25.5260         83
  25.5446         98
  25.5632         87
  25.5818        118
  25.6003         99
  25.6189        103
  25.6375         92
  25.6561        105
  25.6746        102
  25.6932         89
  25.7118         85
  25.7304        103
  25.7489         93
  25.7675        105
  25.7861         94
  25.8047         87
  25.8232         85
  25.8418         93
  25.8604         84
  25.8790        109
  25.8976         85
  25.9161         95
  25.9347         93
  25.9533        111
  25.9719         88
  25.9904        110
  26.0090        105
  26.0276         92
  26.0462         92
  26.0647        117
  26.0833        109
  26.1019         95
  26.1205        105
  26.1390         91
  26.1576        105
  26.1762        107
  26.1948        105
  26.2133         95
  26.2319         96
  26.2505         88
  26.2691         93
  26.2876         90
  26.3062         91
  26.3248        105
  26.3434         87
  26.3619        104
  26.3805        108
  26.3991         97
  26.4177        101
  26.4362        100
  26.4548         99
  26.4734        101
  26.4920         85
  26.5105         74
  26.5291         94
  26.5477         89
  26.5663         82
  26.5848        101
  26.6034         93
  26.6220         90
  26.6406         96
  26.6591         97
  26.6777         88
  26.6963         79
  26.7149        101
  26.7335         90
  26.7520        104
  26.7706         96
  26.7892         97
  26.8078        102
  26.8263        102
  26.8449         96
  26.8635         90
  26.8821         77
  26.9006         96
  26.9192         91
  26.9378         90
  26.9564         88
  26.9749         93
  26.9935        100
  27.0121        107
  27.0307        101
  27.0492        105
  27.0678        102
  27.0864         79
  27.1050         79
  27.1235        100
  27.1421         93
  27.1607        110
  27.1793        130
  27.1978        120
  27.2164        106
  27.2350        117
  27.2536        130
  27.2721        124
  27.2907         99
  27.3093         89
  27.3279         89
  27.3464         89
  27.3650         94
  27.3836         86
  27.4022        112
  27.4207        106
  27.4393         89
  27.4579         87
  27.4765         83
  27.4951         83
  27.5136         95
  27.5322         84
  27.5508         83
  27.5694         90
  27.5879         94
  27.6065         79
  27.6251         65
  27.6437         97
  27.6622         83
  27.6808         83
  27.6994         86
  27.7180         92
  27.7365         77
  27.7551         99
  27.7737         87
  27.7923         72
  27.8108         80
  27.8294         83
  27.8480         68
  27.8666         89
  27.8851         87
  27.9037         94
  27.9223         93
  27.9409         87
  27.9594         87
  27.9780         96
  27.9966         86
  28.0152         98
  28.0337         88
  28.0523         78
  28.0709         88
  28.0895         84
  28.1080         75
  28.1266         85
  28.1452         65
  28.1638         96
  28.1823         80
  28.2009         89
  28.2195         85
  28.2381         74
  28.2567         82
  28.2752         73
  28.2938         72
  28.3124         69
  28.3310         68
  28.3495         87
  28.3681         77
  28.3867         93
  28.4053         92
  28.4238         72
  28.4424         99
  28.4610         87
  28.4796         86
  28.4981         86
  28.5167         81
  28.5353         79
  28.5539         93
  28.5724         91
  28.5910        108
  28.6096         72
  28.6282        107
  28.6467         84
  28.6653         82
  28.6839         79
  28.7025        101
  28.7210         98
  28.7396        105
  28.7582         73
  28.7768         90
  28.7953         72
  28.8139         74
  28.8325         88
  28.8511         71
  28.8696         91
  28.8882        103
  28.9068         92
  28.9254         86
  28.9439         74
  28.9625         82
  28.9811         79
  28.9997         73
  29.0183         70
  29.0368         78
  29.0554         65
  29.0740         67
  29.0926         65
  29.1111         79
  29.1297         89
  29.1483         86
  29.1669         80
  29.1854         84
  29.2040         86
  29.2226         69
  29.2412         72
  29.2597         75
  29.2783         69
  29.2969         85
  29.3155         79
  29.3340         74
  29.3526         94
  29.3712         79
  29.3898         88
  29.4083         64
  29.4269         81
  29.4455         75
  29.4641         74
  29.4826         68
  29.5012         97
  29.5198         58
  29.5384         75
  29.5569         68
  29.5755         89
  29.5941         65
  29.6127         75
  29.6312         75
  29.6498        100
  29.6684         63
  29.6870         76
  29.7055         68
  29.7241         70
  29.7427         77
  29.7613         85
  29.7799         75
  29.7984         93
  29.8170         68
  29.8356         79
  29.8542         73
  29.8727         57
  29.8913         75
  29.9099         75
  29.9285         69
  29.9470         72
  29.9656         93
  29.9842         85
  30.0028         75
  30.0213         81
  30.0399         77
  30.0585         87
  30.0771         62
  30.0956         82
  30.1142         72
  30.1328         77
  30.1514         86
  30.1699         83
  30.1885         73
  30.2071         95
  30.2257         94
  30.2442         97
  30.2628         70
  30.2814         76
  30.3000         96
  30.3185         77
  30.3371         99
  30.3557        131
  30.3743        172
  30.3928        184
  30.4114        122
  30.4300        126
  30.4486        140
  30.4671        131
  30.4857        105
  30.5043        102
  30.5229        109
  30.5415         85
  30.5600         96
  30.5786         97
  30.5972         81
  30.6158         83
  30.6343         56
  30.6529         86
  30.6715         65
  30.6901         72
  30.7086         88
  30.7272         85
  30.7458         59
  30.7644         64
  30.7829         77
  30.8015         72
  30.8201         65
  30.8387         66
  30.8572         66
  30.8758         76
  30.8944         81
  30.9130         73
  30.9315         84
  30.9501         69
  30.9687         73
  30.9873         67
  31.0058         67
  31.0244         75
  31.0430         59
  31.0616         73
  31.0801         75
  31.0987         69
  31.1173         81
  31.1359         84
  31.1544         69
  31.1730         70
  31.1916         58
  31.2102         64
  31.2287         68
  31.2473         86
  31.2659         74
  31.2845         65
  31.3030         81
  31.3216         68
  31.3402         61
  31.3588         86
  31.3774         69
  31.3959         69
  31.4145         70
  31.4331         69
  31.4517         71
  31.4702         59
  31.4888         75
  31.5074         77
  31.5260         72
  31.5445         59
  31.5631         65
  31.5817         84
  31.6003         72
  31.6188         47
  31.6374         61
  31.6560         71
  31.6746         80
  31.6931         76
  31.7117         76
  31.7303         80
  31.7489         63
  31.7674         74
  31.7860         68
  31.8046         59
  31.8232         67
  31.8417         58
  31.8603         56
  31.8789         66
  31.8975         60
  31.9160         63
  31.9346         69
  31.9532         67
  31.9718         76
  31.9903         64
  32.0089         73
  32.0275         67
  32.0461         72
  32.0646         73
  32.0832         77
  32.1018         62
  32.1204         51
  32.1390         90
  32.1575         64
  32.1761         61
  32.1947         71
  32.2133         70
  32.2318         63
  32.2504         60
  32.2690         66
  32.2876         81
  32.3061         70
  32.3247         60
  32.3433         76
  32.3619         78
  32.3804         73
  32.3990         77
  32.4176         62
  32.4362         81
  32.4547         68
  32.4733         75
  32.4919         79
  32.5105         88
  32.5290         59
  32.5476         82
  32.5662         58
  32.5848         71
  32.6033         68
  32.6219         54
  32.6405         68
  32.6591         60
  32.6776         60
  32.6962         55
  32.7148         66
  32.7334         67
  32.7519         60
  32.7705         71
  32.7891         51
  32.8077         66
  32.8262         73
  32.8448         52
  32.8634         51
  32.8820         54
  32.9006         67
  32.9191         57
  32.9377         53
  32.9563         48
  32.9749         65
  32.9934         54
  33.0120         61
  33.0306         64
  33.0492         51
  33.0677         61
  33.0863         60
  33.1049         64
  33.1235         51
  33.1420         59
  33.1606         75
  33.1792         58
  33.1978         46
  33.2163         61
  33.2349         54
  33.2535         81
  33.2721         55
  33.2906         60
  33.3092         57
  33.3278         59
  33.3464         62
  33.3649         52
  33.3835         63
  33.4021         58
  33.4207         55
  33.4392         68
  33.4578         47
  33.4764         79
  33.4950         67
  33.5135         56
  33.5321         52
  33.5507         55
  33.5693         65
  33.5878         58
  33.6064         59
  33.6250         54
  33.6436         61
  33.6622         56
  33.6807         62
  33.6993         81
  33.7179         56
  33.7365         77
  33.7550         57
  33.7736         69
  33.7922         71
  33.8108         51
  33.8293         63
  33.8479         63
  33.8665         52
  33.8851         60
  33.9036         49
  33.9222         50
  33.9408         60
  33.9594         52
  33.9779         69
  33.9965         49
  34.0151         52
  34.0337         60
  34.0522         51
  34.0708         51
  34.0894         61
  34.1080         56
  34.1265         67
  34.1451         50
  34.1637         55
  34.1823         60
  34.2008         77
  34.2194         60
  34.2380         47
  34.2566         46
  34.2751         52
  34.2937         50
  34.3123         50
  34.3309         63
  34.3494         67
  34.3680         67
  34.3866         52
  34.4052         56
  34.4238         61
  34.4423         54
  34.4609         63
  34.4795         68
  34.4981         68
  34.5166         62
  34.5352         72
  34.5538         67
  34.5724         58
  34.5909         55
  34.6095         50
  34.6281         77
  34.6467         54
  34.6652         77
  34.6838         85
  34.7024         68
  34.7210         61
  34.7395         86
  34.7581         87
  34.7767         69
  34.7953         78
  34.8138         79
  34.8324         69
  34.8510         74
  34.8696         71
  34.8881         53
  34.9067         62
  34.9253         57
  34.9439         61
  34.9624         62
  34.9810         64
  34.9996         54
  35.0182         55
  35.0367         45
  35.0553         39
  35.0739         65
  35.0925         56
  35.1110         59
  35.1296         66
  35.1482         40
  35.1668         43
  35.1854         40
  35.2039         49
  35.2225         61
  35.2411         64
  35.2597         50
  35.2782         45
  35.2968         54
  35.3154         54
  35.3340         37
  35.3525         59
  35.3711         51
  35.3897         52
  35.4083         42
  35.4268         57
  35.4454         56
  35.4640         46
  35.4826         52
  35.5011         48
  35.5197         48
  35.5383         47
  35.5569         50
  35.5754         35
  35.5940         45
  35.6126         41
  35.6312         41
  35.6497         46
  35.6683         47
  35.6869         50
  35.7055         45
  35.7240         50
  35.7426         42
  35.7612         54
  35.7798         52
  35.7983         43
  35.8169         40
  35.8355         46
  35.8541         40
  35.8726         54
  35.8912         68
  35.9098         48
  35.9284         35
  35.9469         56
  35.9655         49
  35.9841         45
  36.0027         54
  36.0213         49
  36.0398         48
  36.0584         41
  36.0770         53
  36.0956         57
  36.1141         52
  36.1327         55
  36.1513         44
  36.1699         50
  36.1884         52
  36.2070         45
  36.2256         43
  36.2442         45
  36.2627         43
  36.2813         46
  36.2999         41
  36.3185         52
  36.3370         45
  36.3556         58
  36.3742         40
  36.3928         47
  36.4113         53
  36.4299         46
  36.4485         57
  36.4671         44
  36.4856         49
  36.5042         45
  36.5228         53
  36.5414         56
  36.5599         48
  36.5785         50
  36.5971         43
  36.6157         40
  36.6342         38
  36.6528         43
  36.6714         42
  36.6900         44
  36.7085         47
  36.7271         42
  36.7457         48
  36.7643         45
  36.7829         40
  36.8014         57
  36.8200         52
  36.8386         47
  36.8572         47
  36.8757         62
  36.8943         56
  36.9129         51
  36.9315         43
  36.9500         43
  36.9686         48
  36.9872         43
  37.0058         42
  37.0243         48
  37.0429         32
  37.0615         45
  37.0801         45
  37.0986         44
  37.1172         40
  37.1358         42
  37.1544         48
  37.1729         38
  37.1915         48
  37.2101         61
  37.2287         45
  37.2472         38
  37.2658         42
  37.2844         30
  37.3030         52
  37.3215         44
  37.3401         48
  37.3587         58
  37.3773         31
  37.3958         60
  37.4144         61
  37.4330         84
  37.4516         75
  37.4701         63
  37.4887         56
  37.5073         59
  37.5259         58
  37.5445         52
  37.5630         49
  37.5816         55
  37.6002         51
  37.6188         50
  37.6373         44
  37.6559         30
  37.6745         52
  37.6931         63
  37.7116         52
  37.7302         47
  37.7488         48
  37.7674         39
  37.7859         48
  37.8045         48
  37.8231         47
  37.8417         44
  37.8602         44
  37.8788         50
  37.8974         52
  37.9160         49
  37.9345         41
  37.9531         41
  37.9717         42
  37.9903         40
  38.0088         38
  38.0274         43
  38.0460         37
  38.0646         39
  38.0831         43
  38.1017         46
  38.1203         49
  38.1389         40
  38.1574         34
  38.1760         45
  38.1946         34
  38.2132         32
  38.2317         40
  38.2503         45
  38.2689         43
  38.2875         46
  38.3061         41
  38.3246         49
  38.3432         37
  38.3618         42
  38.3804         47
  38.3989         38
  38.4175         49
  38.4361         42
  38.4547         45
  38.4732         39
  38.4918         40
  38.5104         32
  38.5290         37
  38.5475         40
  38.5661         43
  38.5847         43
  38.6033         44
  38.6218         41
  38.6404         44
  38.6590         42
  38.6776         35
  38.6961         41
  38.7147         28
  38.7333         24
  38.7519         29
  38.7704         42
  38.7890         28
  38.8076         41
  38.8262         42
  38.8447         29
  38.8633         51
  38.8819         33
  38.9005         43
  38.9190         38
  38.9376         51
  38.9562         28
  38.9748         48
  38.9933         43
  39.0119         32
  39.0305         40
  39.0491         40
  39.0677         39
  39.0862         30
  39.1048         41
  39.1234         45
  39.1420         49
  39.1605         42
  39.1791         47
  39.1977         36
  39.2163         41
  39.2348         49
  39.2534         40
  39.2720         49
  39.2906         44
  39.3091         35
  39.3277         51
  39.3463         40
  39.3649         45
  39.3834         38
  39.4020         30
  39.4206         34
  39.4392         42
  39.4577         35
  39.4763         38
  39.4949         51
  39.5135         40
  39.5320         38
  39.5506         30
  39.5692         46
  39.5878         35
  39.6063         35
  39.6249         48
  39.6435         55
  39.6621         42
  39.6806         38
  39.6992         49
  39.7178         39
  39.7364         43
  39.7549         43
  39.7735         40
  39.7921         43
  39.8107         46
  39.8293         30
  39.8478         29
  39.8664         35
  39.8850         41
  39.9036         34
  39.9221         33
  39.9407         34
  39.9593         52
  39.9779         47
  39.9964         32
  40.0150         44
  40.0336         50
  40.0522         30
  40.0707         36
  40.0893         39
  40.1079         34
  40.1265         37
  40.1450         48
  40.1636         32
  40.1822         44
  40.2008         41
  40.2193         44
  40.2379         39
  40.2565         34
  40.2751         39
  40.2936         41
  40.3122         34
  40.3308         37
  40.3494         38
  40.3679         47
  40.3865         41
  40.4051         40
  40.4237         31
  40.4422         38
  40.4608         29
  40.4794         31
  40.4980         32
  40.5165         38
  40.5351         46
  40.5537         46
  40.5723         45
  40.5908         34
  40.6094         38
  40.6280         32
  40.6466         37
  40.6652         38
  40.6837         35
  40.7023         36
  40.7209         36
  40.7395         36
  40.7580         33
  40.7766         43
  40.7952         33
  40.8138         37
  40.8323         37
  40.8509         40
  40.8695         44
  40.8881         34
  40.9066         47
  40.9252         44
  40.9438         51
  40.9624         33
  40.9809         37
  40.9995         34
  41.0181         30
  41.0367         47
  41.0552         34
  41.0738         48
  41.0924         39
  41.1110         38
  41.1295         44
  41.1481         42
  41.1667         50
  41.1853         36
  41.2038         33
  41.2224         37
  41.2410         40
  41.2596         46
  41.2781         45
  41.2967         42
  41.3153         34
  41.3339         37
  41.3524         49
  41.3710         35
  41.3896         32
  41.4082         33
  41.4268         35
  41.4453         36
  41.4639         47
  41.4825         43
  41.5011         35
  41.5196         41
  41.5382         33
  41.5568         37
  41.5754         29
  41.5939         24
  41.6125         39
  41.6311         37
  41.6497         39
  41.6682         33
  41.6868         42
  41.7054         27
  41.7240         36
  41.7425         34
  41.7611         40
  41.7797         37
  41.7983         36
  41.8168         30
  41.8354         39
  41.8540         37
  41.8726         41
  41.8911         44
  41.9097         37
  41.9283         27
  41.9469         45
  41.9654         25
  41.9840         39
  42.0026         35
  42.0212         36
  42.0397         32
  42.0583         43
  42.0769         39
  42.0955         40
  42.1140         26
  42.1326         39
  42.1512         31
  42.1698         34
  42.1884         42
  42.2069         28
  42.2255         41
  42.2441         23
  42.2627         42
  42.2812         33
  42.2998         44
  42.3184         42
  42.3370         36
  42.3555         36
  42.3741         50
  42.3927         39
  42.4113         39
  42.4298         29
  42.4484         32
  42.4670         37
  42.4856         37
  42.5041         35
  42.5227         43
  42.5413         27
  42.5599         27
  42.5784         38
  42.5970         41
  42.6156         37
  42.6342         50
  42.6527         35
  42.6713         39
  42.6899         35
  42.7085         34
  42.7270         39
  42.7456         35
  42.7642         40
  42.7828         35
  42.8013         32
  42.8199         28
  42.8385         31
  42.8571         37
  42.8756         41
  42.8942         41
  42.9128         42
  42.9314         36
  42.9500         38
  42.9685         43
  42.9871         46
  43.0057         35
  43.0243         43
  43.0428         36
  43.0614         33
  43.0800         26
  43.0986         45
  43.1171         40
  43.1357         44
  43.1543         33
  43.1729         33
  43.1914         45
  43.2100         55
  43.2286         52
  43.2472         49
  43.2657         53
  43.2843         35
  43.3029         34
  43.3215         52
  43.3400         43
  43.3586         37
  43.3772         45
  43.3958         47
  43.4143         33
  43.4329         41
  43.4515         41
  43.4701         54
  43.4886         51
  43.5072         64
  43.5258         54
  43.5444         43
  43.5629         38
  43.5815         32
  43.6001         58
  43.6187         49
  43.6372         45
  43.6558         45
  43.6744         35
  43.6930         28
  43.7116         36
  43.7301         33
  43.7487         34
  43.7673         33
  43.7859         32
  43.8044         39
  43.8230         33
  43.8416         29
  43.8602         39
  43.8787         39
  43.8973         42
  43.9159         29
  43.9345         32
  43.9530         36
  43.9716         33
  43.9902         40
  44.0088         43
  44.0273         35
  44.0459         31
  44.0645         38
  44.0831         25
  44.1016         31
  44.1202         46
  44.1388         33
  44.1574         35
  44.1759         30
  44.1945         47
  44.2131         41
  44.2317         29
  44.2502         30
  44.2688         28
  44.2874         42
  44.3060         42
  44.3245         35
  44.3431         44
  44.3617         52
  44.3803         30
  44.3988         32
  44.4174         44
  44.4360         33
  44.4546         43
  44.4732         42
  44.4917         49
  44.5103         38
  44.5289         25
  44.5475         40
  44.5660         42
  44.5846         37
  44.6032         45
  44.6218         26
  44.6403         38
  44.6589         39
  44.6775         38
  44.6961         45
  44.7146         32
  44.7332         56
  44.7518         43
  44.7704         44
  44.7889         30
  44.8075         25
  44.8261         44
  44.8447         42
  44.8632         30
  44.8818         47
  44.9004         38
  44.9190         40
  44.9375         37
  44.9561         42
  44.9747         32
  44.9933         33
  45.0118         25
  45.0304         38
  45.0490         32
  45.0676         36
  45.0861         41
  45.1047         34
  45.1233         32
  45.1419         39
  45.1604         31
  45.1790         28
  45.1976         32
  45.2162         34
  45.2347         34
  45.2533         21
  45.2719         30
  45.2905         33
  45.3091         32
  45.3276         35
  45.3462         28
  45.3648         36
  45.3834         29
  45.4019         43
  45.4205         38
  45.4391         37
  45.4577         34
  45.4762         30
  45.4948         37
  45.5134         47
  45.5320         40
  45.5505         20
  45.5691         35
  45.5877         37
  45.6063         29
  45.6248         34
  45.6434         26
  45.6620         37
  45.6806         34
  45.6991         41
  45.7177         35
  45.7363         30
  45.7549         41
  45.7734         37
  45.7920         29
  45.8106         43
  45.8292         32
  45.8477         39
  45.8663         31
  45.8849         33
  45.9035         28
  45.9220         36
  45.9406         30
  45.9592         51
  45.9778         32
  45.9963         32
  46.0149         23
  46.0335         33
  46.0521         29
  46.0707         27
  46.0892         35
  46.1078         38
  46.1264         29
  46.1450         33
  46.1635         28
  46.1821         33
  46.2007         34
  46.2193         33
  46.2378         19
  46.2564         31
  46.2750         27
  46.2936         30
  46.3121         37
  46.3307         45
  46.3493         29
  46.3679         32
  46.3864         23
  46.4050         36
  46.4236         37
  46.4422         34
  46.4607         41
  46.4793         25
  46.4979         36
  46.5165         29
  46.5350         32
  46.5536         40
  46.5722         41
  46.5908         40
  46.6093         28
  46.6279         37
  46.6465         34
  46.6651         40
  46.6836         32
  46.7022         27
  46.7208         29
  46.7394         29
  46.7579         29
  46.7765         25
  46.7951         37
  46.8137         40
  46.8323         25
  46.8508         34
  46.8694         36
  46.8880         32
  46.9066         42
  46.9251         50
  46.9437         29
  46.9623         33
  46.9809         34
  46.9994         35
  47.0180         30
  47.0366         33
  47.0552         30
  47.0737         20
  47.0923         36
  47.1109         35
  47.1295         49
  47.1480         35
  47.1666         34
  47.1852         26
  47.2038         35
  47.2223         35
  47.2409         43
  47.2595         27
  47.2781         32
  47.2966         35
  47.3152         33
  47.3338         27
  47.3524         31
  47.3709         44
  47.3895         40
  47.4081         31
  47.4267         36
  47.4452         26
  47.4638         36
  47.4824         31
  47.5010         34
  47.5195         23
  47.5381         43
  47.5567         32
  47.5753         32
  47.5939         29
  47.6124         32
  47.6310         25
  47.6496         31
  47.6682         21
  47.6867         36
  47.7053         24
  47.7239         40
  47.7425         42
  47.7610         34
  47.7796         27
  47.7982         30
  47.8168         37
  47.8353         26
  47.8539         28
  47.8725         24
  47.8911         22
  47.9096         38
  47.9282         31
  47.9468         35
  47.9654         35
  47.9839         26
  48.0025         31
  48.0211         23
  48.0397         36
  48.0582         25
  48.0768         28
  48.0954         32
  48.1140         34
  48.1325         30
  48.1511         32
  48.1697         21
  48.1883         34
  48.2068         29
  48.2254         27
  48.2440         24
  48.2626         29
  48.2811         29
  48.2997         35
  48.3183         34
  48.3369         33
  48.3555         32
  48.3740         24
  48.3926         25
  48.4112         39
  48.4298         27
  48.4483         32
  48.4669         35
  48.4855         30
  48.5041         34
  48.5226         31
  48.5412         34
  48.5598         24
  48.5784         34
  48.5969         29
  48.6155         20
  48.6341         33
  48.6527         42
  48.6712         29
  48.6898         24
  48.7084         37
  48.7270         20
  48.7455         40
  48.7641         33
  48.7827         34
  48.8013         44
  48.8198         37
  48.8384         30
  48.8570         39
  48.8756         41
  48.8941         25
  48.9127         39
  48.9313         43
  48.9499         56
  48.9684         56
  48.9870         53
  49.0056         38
  49.0242         31
  49.0427         36
  49.0613         42
  49.0799         58
  49.0985         56
  49.1171         41
  49.1356         34
  49.1542         41
  49.1728         25
  49.1914         32
  49.2099         35
  49.2285         38
  49.2471         25
  49.2657         26
  49.2842         31
  49.3028         33
  49.3214         31
  49.3400         39
  49.3585         30
  49.3771         32
  49.3957         28
  49.4143         31
  49.4328         37
  49.4514         38
  49.4700         24
  49.4886         29
  49.5071         27
  49.5257         29
  49.5443         38
  49.5629         32
  49.5814         28
  49.6000         27
  49.6186         28
  49.6372         31
  49.6557         33
  49.6743         34
  49.6929         30
  49.7115         32
  49.7300         40
  49.7486         30
  49.7672         32
  49.7858         42
  49.8043         33
  49.8229         22
  49.8415         40
  49.8601         18
  49.8786         33
  49.8972         28
  49.9158         40
  49.9344         28
  49.9530         46
  49.9715         24
  49.9901         26
  50.0087         35
  50.0273         33
  50.0458         35
  50.0644         26
  50.0830         29
  50.1016         34
  50.1201         30
  50.1387         29
  50.1573         32
  50.1759         29
  50.1944         28
  50.2130         35
  50.2316         31
  50.2502         20
  50.2687         27
  50.2873         34
  50.3059         28
  50.3245         41
  50.3430         32
  50.3616         38
  50.3802         29
  50.3988         27
  50.4173         36
  50.4359         22
  50.4545         31
  50.4731         28
  50.4916         32
  50.5102         33
  50.5288         24
  50.5474         36
  50.5659         29
  50.5845         29
  50.6031         37
  50.6217         28
  50.6402         21
  50.6588         25
  50.6774         29
  50.6960         31
  50.7146         21
  50.7331         39
  50.7517         34
  50.7703         38
  50.7889         29
  50.8074         26
  50.8260         27
  50.8446         34
  50.8632         34
  50.8817         34
  50.9003         25
  50.9189         24
  50.9375         30
  50.9560         32
  50.9746         42
  50.9932         38
  51.0118         21
  51.0303         33
  51.0489         24
  51.0675         28
  51.0861         37
  51.1046         28
  51.1232         24
  51.1418         33
  51.1604         27
  51.1789         34
  51.1975         32
  51.2161         34
  51.2347         25
  51.2532         28
  51.2718         25
  51.2904         27
  51.3090         28
  51.3275         28
  51.3461         37
  51.3647         29
  51.3833         41
  51.4018         39
  51.4204         34
  51.4390         29
  51.4576         34
  51.4762         31
  51.4947         33
  51.5133         26
  51.5319         30
  51.5505         31
  51.5690         31
  51.5876         29
  51.6062         36
  51.6248         34
  51.6433         36
  51.6619         30
  51.6805         15
  51.6991         36
  51.7176         28
  51.7362         26
  51.7548         39
  51.7734         45
  51.7919         35
  51.8105         39
  51.8291         37
  51.8477         49
  51.8662         34
  51.8848         21
  51.9034         32
  51.9220         46
  51.9405         37
  51.9591         40
  51.9777         26
  51.9963         28
  52.0148         26
  52.0334         36
  52.0520         28
  52.0706         29
  52.0891         27
  52.1077         32
  52.1263         28
  52.1449         28
  52.1634         34
  52.1820         31
  52.2006         35
  52.2192         32
  52.2378         36
  52.2563         21
  52.2749         24
  52.2935         26
  52.3121         36
  52.3306         29
  52.3492         31
  52.3678         34
  52.3864         18
  52.4049         23
  52.4235         33
  52.4421         37
  52.4607         25
  52.4792         24
  52.4978         33
  52.5164         21
  52.5350         31
  52.5535         30
  52.5721         26
  52.5907         28
  52.6093         27
  52.6278         33
  52.6464         27
  52.6650         35
  52.6836         36
  52.7021         32
  52.7207         27
  52.7393         28
  52.7579         31
  52.7764         22
  52.7950         19
  52.8136         34
  52.8322         22
  52.8507         27
  52.8693         24
  52.8879         32
  52.9065         33
  52.9250         25
  52.9436         37
  52.9622         20
  52.9808         29
  52.9994         28
  53.0179         32
  53.0365         37
  53.0551         27
  53.0737         26
  53.0922         31
  53.1108         29
  53.1294         28
  53.1480         28
  53.1665         38
  53.1851         26
  53.2037         22
  53.2223         30
  53.2408         28
  53.2594         15
  53.2780         27
  53.2966         25
  53.3151         33
  53.3337         24
  53.3523         23
  53.3709         22
  53.3894         36
  53.4080         32
  53.4266         20
  53.4452         28
  53.4637         21
  53.4823         34
  53.5009         22
  53.5195         16
  53.5380         18
  53.5566         36
  53.5752         42
  53.5938         33
  53.6123         18
  53.6309         32
  53.6495         30
  53.6681         27
  53.6866         29
  53.7052         14
  53.7238         29
  53.7424         30
  53.7610         28
  53.7795         41
  53.7981         34
  53.8167         28
  53.8353         37
  53.8538         35
  53.8724         21
  53.8910         31
  53.9096         31
  53.9281         19
  53.9467         34
  53.9653         38
  53.9839         36
  54.0024         45
  54.0210         43
  54.0396         40
  54.0582         37
  54.0767         39
  54.0953         37
  54.1139         33
  54.1325         45
  54.1510         49
  54.1696         32
  54.1882         33
  54.2068         27
  54.2253         28
  54.2439         24
  54.2625         23
  54.2811         21
  54.2996         32
  54.3182         24
  54.3368         29
  54.3554         26
  54.3739         23
  54.3925         37
  54.4111         39
  54.4297         35
  54.4482         19
  54.4668         27
  54.4854         40
  54.5040         27
  54.5225         38
  54.5411         34
  54.5597         19
  54.5783         29
  54.5969         31
  54.6154         31
  54.6340         20
  54.6526         37
  54.6712         31
  54.6897         32
  54.7083         25
  54.7269         22
  54.7455         29
  54.7640         22
  54.7826         24
  54.8012         35
  54.8198         23
  54.8383         33
  54.8569         26
  54.8755         33
  54.8941         34
  54.9126         43
  54.9312         28
  54.9498         21
  54.9684         20
  54.9869         21
  55.0055         33
  55.0241         30
  55.0427         31
  55.0612         27
  55.0798         26
  55.0984         23
  55.1170         35
  55.1355         36
  55.1541         26
  55.1727         28
  55.1913         28
  55.2098         34
  55.2284         31
  55.2470         26
  55.2656         23
  55.2841         28
  55.3027         29
  55.3213         38
  55.3399         30
  55.3585         28
  55.3770         27
  55.3956         24
  55.4142         24
  55.4328         39
  55.4513         23
  55.4699         27
  55.4885         28
  55.5071         38
  55.5256         37
  55.5442         27
  55.5628         29
  55.5814         28
  55.5999         29
  55.6185         29
  55.6371         31
  55.6557         37
  55.6742         25
  55.6928         18
  55.7114         25
  55.7300         33
  55.7485         23
  55.7671         32
  55.7857         22
  55.8043         23
  55.8228         26
  55.8414         28
  55.8600         30
  55.8786         26
  55.8971         28
  55.9157         24
  55.9343         29
  55.9529         32
  55.9714         31
  55.9900         29
  56.0086         33
  56.0272         30
  56.0457         24
  56.0643         24
  56.0829         29
  56.1015         24
  56.1201         23
  56.1386         32
  56.1572         19
  56.1758         20
  56.1944         35
  56.2129         34
  56.2315         41
  56.2501         28
  56.2687         39
  56.2872         26
  56.3058         28
  56.3244         27
  56.3430         32
  56.3615         30
  56.3801         30
  56.3987         25
  56.4173         27
  56.4358         27
  56.4544         39
  56.4730         27
  56.4916         26
  56.5101         24
  56.5287         29
  56.5473         26
  56.5659         24
  56.5844         21
  56.6030         34
  56.6216         34
  56.6402         35
  56.6587         35
  56.6773         30
  56.6959         25
  56.7145         26
  56.7330         30
  56.7516         27
  56.7702         25
  56.7888         27
  56.8073         22
  56.8259         23
  56.8445         26
  56.8631         31
  56.8817         29
  56.9002         30
  56.9188         14
  56.9374         31
  56.9560         32
  56.9745         33
  56.9931         40
  57.0117         27
  57.0303         32
  57.0488         26
  57.0674         27
  57.0860         32
  57.1046         27
  57.1231         38
  57.1417         27
  57.1603         21
  57.1789         22
  57.1974         22
  57.2160         23
  57.2346         37
  57.2532         23
  57.2717         26
  57.2903         36
  57.3089         31
  57.3275         32
  57.3460         23
  57.3646         41
  57.3832         24
  57.4018         32
  57.4203         24
  57.4389         30
  57.4575         23
  57.4761         18
  57.4946         28
  57.5132         23
  57.5318         28
  57.5504         30
  57.5689         33
  57.5875         20
  57.6061         27
  57.6247         26
  57.6433         28
  57.6618         27
  57.6804         31
  57.6990         32
  57.7176         28
  57.7361         29
  57.7547         28
  57.7733         26
  57.7919         24
  57.8104         28
  57.8290         29
  57.8476         23
  57.8662         25
  57.8847         34
  57.9033         34
  57.9219         27
  57.9405         21
  57.9590         24
  57.9776         19
  57.9962         26
  58.0148         30
  58.0333         22
  58.0519         21
  58.0705         22
  58.0891         18
  58.1076         34
  58.1262         25
  58.1448         20
  58.1634         28
  58.1819         25
  58.2005         26
  58.2191         19
  58.2377         21
  58.2562         28
  58.2748         24
  58.2934         27
  58.3120         30
  58.3305         19
  58.3491         24
  58.3677         29
  58.3863         27
  58.4049         26
  58.4234         32
  58.4420         43
  58.4606         32
  58.4792         24
  58.4977         27
  58.5163         25
  58.5349         26
  58.5535         20
  58.5720         23
  58.5906         26
  58.6092         27
  58.6278         34
  58.6463         29
  58.6649         25
  58.6835         27
  58.7021         26
  58.7206         37
  58.7392         21
  58.7578         27
  58.7764         29
  58.7949         27
  58.8135         24
  58.8321         30
  58.8507         24
  58.8692         28
  58.8878         23
  58.9064         23
  58.9250         28
  58.9435         29
  58.9621         29
  58.9807         16
  58.9993         24
  59.0178         26
  59.0364         28
  59.0550         17
  59.0736         27
  59.0921         27
  59.1107         27
  59.1293         28
  59.1479         25
  59.1664         22
  59.1850         38
  59.2036         24
  59.2222         26
  59.2408         37
  59.2593         30
  59.2779         23
  59.2965         25
  59.3151         33
  59.3336         30
  59.3522         27
  59.3708         25
  59.3894         31
  59.4079         31
  59.4265         26
  59.4451         34
  59.4637         31
  59.4822         14
  59.5008         24
  59.5194         23
  59.5380         23
  59.5565         19
  59.5751         29
  59.5937         30
  59.6123         24
  59.6308         23
  59.6494         18
  59.6680         28
  59.6866         28
  59.7051         21
  59.7237         32
  59.7423         26
  59.7609         21
  59.7794         27
  59.7980         14
  59.8166         30
  59.8352         32
  59.8537         30
  59.8723         22
  59.8909         28
  59.9095         30
  59.9280         23
  59.9466         23
  59.9652         34
  59.9838         27
  60.0024         28
