; (content of file Y:\Sam\Apurva-07-20-2022\puck4\ML_20220718_58_SJD_4_LaB6-2min.raw)
_FILEVERSION = 3
_SAMPLE = ML_20220718_58_SJD_4_LaB6-2min
_+SAMPLE = 
_SITE = USA
_USER = Administrator
_GONIOMETER_CODE = 20
; Goniometer : D8 theta/2theta, stage : Unknown
_ATTACHMENTS_CODE = 0
_GONIOMETER_RADIUS = 200.5
_FIXED_DIVSLIT = 0.6
_FIXED_SAMPLESLIT = 0
_SOLLER_SLITS = 2
_FIXED_DETSLIT = 9.55
_MONOCHROMATOR = 0
; Incident beam monochromator : None
_SOLLER_SLITS_2 = N
_THIN_FILM = N
_BETA_FILTER = Y
_FIXED_ANTISLIT = 5.89
_ANALYZER_CODE = 0
; Received beam analyzer : None
_DATEMEASURED = "26-Jul-2022 12:46:46"
_WL_UNIT = A
_WL1 = 1.5406
_WL2 = 1.54439
_WL3 = 1.39222
_WLRATIO = 0.5
_ANODE = Cu
_V4_INF_CREATOR = XRDWizard
_V4_INF_CREATOR_VERSION = V2.9.0.22
_V4_INF_WIZARD_VERSION = V2.9.0.22
_V4_INF_WIZARD_ADDINS = V2.9.0.22
_V4_INF_WIZARD_DOCTYPE = XRD
_V4_INF_OSUSER = McQueenLab
_V4_INF_USER = Administrator
_V4_INF_SITE = USA
_V4_INF_SAMPLEID = ML_20220718_58_SJD_4_LaB6-2min

; Data for range 1
_DRIVE = COUPLED
_STEPTIME = 5.64
_STEPSIZE = 0.0185756
_STEPMODE = C
_START = 5
_THETA = 2.5
_2THETA = 5
_KHI = 0
_PHI = 0
_X = 0
_Y = 0
_Z = 0
_DETECTOR = 5
; Detector type : Unknown
_DETECTORSLIT = unkn
_AUX1 = 0
_AUX2 = 0
_AUX3 = 0
_TIMESTARTED = 14
_TEMP_RATE = -1
_TEMP_DELAY = -1
_KV = 40
_MA = 40
_RANGE_WL = 1.5406
_3DPLANE = 0
_V4_ADDITIONALDETECTOR = 257
_V4_PSD2THETA = 3.4183
_V4_PSDCHANNEL1 = 0
_V4_PSDAPERTURE = 12.68
_V4_PSDTYPE = 5
_V4_PSDFIXED = 0
_V4_COUNTERS_MASK = 4096
_V4_DRIVES_MASK = 0
_V4_ENCODERS_MASK = 0
_2THETACOUNTS = 1
; 2THETA  PSD
   5.0000        114
   5.0186        136
   5.0372        128
   5.0557        145
   5.0743        117
   5.0929        117
   5.1115        131
   5.1300        123
   5.1486        115
   5.1672        125
   5.1858        126
   5.2043        148
   5.2229        143
   5.2415        116
   5.2601        101
   5.2786        114
   5.2972        144
   5.3158        120
   5.3344        106
   5.3529        113
   5.3715        118
   5.3901        104
   5.4087        118
   5.4272        110
   5.4458        108
   5.4644        116
   5.4830        112
   5.5015        112
   5.5201        122
   5.5387        116
   5.5573        111
   5.5758        109
   5.5944        103
   5.6130        104
   5.6316        121
   5.6501        109
   5.6687        113
   5.6873        106
   5.7059        105
   5.7244        108
   5.7430        104
   5.7616        105
   5.7802        106
   5.7988        100
   5.8173        100
   5.8359        111
   5.8545        108
   5.8731         88
   5.8916         89
   5.9102        100
   5.9288         86
   5.9474        108
   5.9659        102
   5.9845        108
   6.0031         95
   6.0217        118
   6.0402         92
   6.0588        104
   6.0774         83
   6.0960         89
   6.1145         90
   6.1331         89
   6.1517         89
   6.1703         91
   6.1888         95
   6.2074         96
   6.2260        108
   6.2446         95
   6.2631        101
   6.2817        108
   6.3003         95
   6.3189         93
   6.3374        106
   6.3560         84
   6.3746         80
   6.3932         84
   6.4117         82
   6.4303         88
   6.4489         81
   6.4675         92
   6.4860         82
   6.5046         97
   6.5232         92
   6.5418         88
   6.5604         91
   6.5789         90
   6.5975         68
   6.6161         89
   6.6347         88
   6.6532         91
   6.6718         83
   6.6904         87
   6.7090        102
   6.7275         89
   6.7461        105
   6.7647         78
   6.7833         86
   6.8018         79
   6.8204         90
   6.8390         89
   6.8576         76
   6.8761         80
   6.8947         97
   6.9133         82
   6.9319         82
   6.9504         68
   6.9690         79
   6.9876         88
   7.0062         71
   7.0247         78
   7.0433         85
   7.0619         96
   7.0805         82
   7.0990         77
   7.1176         73
   7.1362         98
   7.1548         90
   7.1733         81
   7.1919         71
   7.2105         82
   7.2291         77
   7.2476         68
   7.2662         88
   7.2848         87
   7.3034         68
   7.3220         76
   7.3405         69
   7.3591         83
   7.3777         69
   7.3963         69
   7.4148         86
   7.4334         75
   7.4520         92
   7.4706         79
   7.4891         67
   7.5077         74
   7.5263         79
   7.5449         74
   7.5634         85
   7.5820         79
   7.6006         77
   7.6192         91
   7.6377         89
   7.6563         80
   7.6749         87
   7.6935         86
   7.7120         74
   7.7306        110
   7.7492         96
   7.7678         87
   7.7863         87
   7.8049         74
   7.8235         76
   7.8421         89
   7.8606         90
   7.8792         99
   7.8978         77
   7.9164         92
   7.9349         93
   7.9535         99
   7.9721         78
   7.9907         85
   8.0092         84
   8.0278         88
   8.0464         98
   8.0650         88
   8.0835         91
   8.1021         99
   8.1207         78
   8.1393         85
   8.1579         91
   8.1764         91
   8.1950         79
   8.2136         83
   8.2322         97
   8.2507         87
   8.2693         78
   8.2879         98
   8.3065        103
   8.3250         94
   8.3436         94
   8.3622         77
   8.3808         86
   8.3993        107
   8.4179        110
   8.4365         97
   8.4551        100
   8.4736         98
   8.4922         84
   8.5108         72
   8.5294         75
   8.5479         91
   8.5665         80
   8.5851         78
   8.6037         97
   8.6222         85
   8.6408         98
   8.6594        107
   8.6780        101
   8.6965        108
   8.7151         97
   8.7337         94
   8.7523        103
   8.7708        100
   8.7894        105
   8.8080        100
   8.8266        117
   8.8451        107
   8.8637        101
   8.8823         98
   8.9009        100
   8.9195        115
   8.9380        109
   8.9566        102
   8.9752        106
   8.9938        106
   9.0123         92
   9.0309        108
   9.0495        111
   9.0681         92
   9.0866        107
   9.1052        115
   9.1238        117
   9.1424        115
   9.1609        113
   9.1795         92
   9.1981        104
   9.2167        109
   9.2352        114
   9.2538        113
   9.2724        104
   9.2910        112
   9.3095        115
   9.3281        106
   9.3467        106
   9.3653        120
   9.3838        108
   9.4024        101
   9.4210         99
   9.4396        122
   9.4581        119
   9.4767        118
   9.4953         87
   9.5139        104
   9.5324        116
   9.5510        116
   9.5696         91
   9.5882         95
   9.6067        106
   9.6253        114
   9.6439        101
   9.6625        118
   9.6811        109
   9.6996        110
   9.7182        103
   9.7368        101
   9.7554        104
   9.7739        102
   9.7925        113
   9.8111        114
   9.8297        118
   9.8482        109
   9.8668        107
   9.8854        103
   9.9040        118
   9.9225        131
   9.9411         93
   9.9597        119
   9.9783        122
   9.9968        111
  10.0154        123
  10.0340        117
  10.0526        121
  10.0711        137
  10.0897        137
  10.1083        127
  10.1269        112
  10.1454        126
  10.1640        100
  10.1826        147
  10.2012        108
  10.2197        125
  10.2383        120
  10.2569        128
  10.2755        115
  10.2940        130
  10.3126        108
  10.3312        117
  10.3498        111
  10.3683        141
  10.3869        126
  10.4055        104
  10.4241        111
  10.4427        106
  10.4612        112
  10.4798        130
  10.4984        111
  10.5170        150
  10.5355        113
  10.5541        130
  10.5727        126
  10.5913        128
  10.6098        109
  10.6284        117
  10.6470        103
  10.6656        127
  10.6841        115
  10.7027        118
  10.7213        133
  10.7399        106
  10.7584        118
  10.7770        134
  10.7956        111
  10.8142        123
  10.8327        119
  10.8513        113
  10.8699        115
  10.8885        121
  10.9070        111
  10.9256        123
  10.9442        123
  10.9628        112
  10.9813        118
  10.9999        115
  11.0185        110
  11.0371        123
  11.0556        106
  11.0742        123
  11.0928        113
  11.1114        113
  11.1299        113
  11.1485        120
  11.1671        111
  11.1857        108
  11.2043        101
  11.2228        120
  11.2414        104
  11.2600        111
  11.2786        123
  11.2971        106
  11.3157        118
  11.3343        109
  11.3529        122
  11.3714        107
  11.3900        129
  11.4086        129
  11.4272        113
  11.4457        103
  11.4643        119
  11.4829        122
  11.5015        111
  11.5200         99
  11.5386        136
  11.5572        123
  11.5758        119
  11.5943         96
  11.6129        115
  11.6315        109
  11.6501        115
  11.6686        127
  11.6872        103
  11.7058        100
  11.7244        106
  11.7429        126
  11.7615        107
  11.7801        143
  11.7987        118
  11.8172        102
  11.8358        100
  11.8544        118
  11.8730        113
  11.8915        111
  11.9101        119
  11.9287         93
  11.9473        113
  11.9659        141
  11.9844        111
  12.0030        115
  12.0216        117
  12.0402         99
  12.0587        110
  12.0773        127
  12.0959         95
  12.1145        119
  12.1330        109
  12.1516        101
  12.1702        108
  12.1888        104
  12.2073        112
  12.2259        107
  12.2445         85
  12.2631         89
  12.2816        135
  12.3002        140
  12.3188        113
  12.3374         84
  12.3559        105
  12.3745        113
  12.3931        111
  12.4117        111
  12.4302        107
  12.4488         89
  12.4674        104
  12.4860         93
  12.5045        132
  12.5231         99
  12.5417         99
  12.5603        103
  12.5788         93
  12.5974        113
  12.6160        116
  12.6346        108
  12.6531        108
  12.6717        104
  12.6903        109
  12.7089        119
  12.7274         97
  12.7460        105
  12.7646        108
  12.7832         94
  12.8018         95
  12.8203        107
  12.8389        110
  12.8575         99
  12.8761        123
  12.8946        121
  12.9132         95
  12.9318        117
  12.9504         94
  12.9689        121
  12.9875        118
  13.0061        121
  13.0247        127
  13.0432        111
  13.0618         87
  13.0804        101
  13.0990        107
  13.1175        103
  13.1361         97
  13.1547         87
  13.1733        113
  13.1918         85
  13.2104         99
  13.2290        105
  13.2476         95
  13.2661        105
  13.2847         93
  13.3033        102
  13.3219        102
  13.3404         94
  13.3590         70
  13.3776         98
  13.3962         93
  13.4147        106
  13.4333        105
  13.4519         89
  13.4705         84
  13.4890         96
  13.5076         91
  13.5262         94
  13.5448         87
  13.5634        108
  13.5819         93
  13.6005         86
  13.6191         83
  13.6377         92
  13.6562        102
  13.6748         86
  13.6934         91
  13.7120        103
  13.7305         84
  13.7491         97
  13.7677         96
  13.7863        102
  13.8048         92
  13.8234        104
  13.8420         87
  13.8606         86
  13.8791         96
  13.8977         90
  13.9163         94
  13.9349         87
  13.9534         93
  13.9720        100
  13.9906         92
  14.0092        101
  14.0277         88
  14.0463         81
  14.0649         85
  14.0835         90
  14.1020         89
  14.1206        107
  14.1392         80
  14.1578        111
  14.1763         92
  14.1949         83
  14.2135         90
  14.2321         77
  14.2506         77
  14.2692         93
  14.2878         78
  14.3064         85
  14.3250         87
  14.3435         93
  14.3621         92
  14.3807         80
  14.3993         87
  14.4178         76
  14.4364         93
  14.4550         97
  14.4736         91
  14.4921         83
  14.5107         75
  14.5293         86
  14.5479         90
  14.5664         87
  14.5850         89
  14.6036         78
  14.6222         83
  14.6407         84
  14.6593        100
  14.6779         79
  14.6965         91
  14.7150         79
  14.7336         86
  14.7522         86
  14.7708         71
  14.7893         76
  14.8079        106
  14.8265         80
  14.8451         64
  14.8636         76
  14.8822         90
  14.9008         73
  14.9194         94
  14.9379         89
  14.9565        106
  14.9751         78
  14.9937         82
  15.0122         82
  15.0308         81
  15.0494         77
  15.0680         68
  15.0866         91
  15.1051         84
  15.1237         84
  15.1423         68
  15.1609         88
  15.1794         75
  15.1980         86
  15.2166         82
  15.2352         92
  15.2537         74
  15.2723         86
  15.2909         98
  15.3095         69
  15.3280         83
  15.3466         90
  15.3652         72
  15.3838         82
  15.4023         66
  15.4209         80
  15.4395         79
  15.4581         74
  15.4766         88
  15.4952         86
  15.5138         75
  15.5324         82
  15.5509         86
  15.5695         92
  15.5881         80
  15.6067         85
  15.6252         69
  15.6438         95
  15.6624         73
  15.6810         74
  15.6995         77
  15.7181         88
  15.7367         77
  15.7553         79
  15.7738         66
  15.7924         87
  15.8110         92
  15.8296         74
  15.8482         62
  15.8667         78
  15.8853         86
  15.9039         76
  15.9225         89
  15.9410         71
  15.9596         76
  15.9782         83
  15.9968         77
  16.0153         70
  16.0339         72
  16.0525         78
  16.0711         84
  16.0896         68
  16.1082         75
  16.1268         82
  16.1454         62
  16.1639         81
  16.1825         78
  16.2011         75
  16.2197         79
  16.2382         94
  16.2568         85
  16.2754         94
  16.2940        101
  16.3125         78
  16.3311        108
  16.3497         76
  16.3683         98
  16.3868         97
  16.4054         88
  16.4240         88
  16.4426         69
  16.4611         82
  16.4797         84
  16.4983         69
  16.5169         81
  16.5354         65
  16.5540         66
  16.5726        106
  16.5912         89
  16.6097         79
  16.6283         82
  16.6469         99
  16.6655         73
  16.6841         61
  16.7026         84
  16.7212         76
  16.7398         89
  16.7584         83
  16.7769         79
  16.7955         70
  16.8141         81
  16.8327         73
  16.8512         69
  16.8698         66
  16.8884         80
  16.9070         70
  16.9255         97
  16.9441         92
  16.9627         71
  16.9813         89
  16.9998         94
  17.0184         80
  17.0370         79
  17.0556         74
  17.0741         78
  17.0927         95
  17.1113         77
  17.1299         76
  17.1484         76
  17.1670         83
  17.1856         72
  17.2042         90
  17.2227         85
  17.2413         83
  17.2599         87
  17.2785         68
  17.2970         74
  17.3156         73
  17.3342         88
  17.3528         70
  17.3713         88
  17.3899         70
  17.4085         89
  17.4271         86
  17.4457         73
  17.4642         78
  17.4828         75
  17.5014         97
  17.5200         84
  17.5385         83
  17.5571         70
  17.5757         74
  17.5943         80
  17.6128         96
  17.6314         85
  17.6500         80
  17.6686         58
  17.6871         76
  17.7057         83
  17.7243         78
  17.7429         79
  17.7614         73
  17.7800         82
  17.7986         90
  17.8172         93
  17.8357         72
  17.8543         71
  17.8729         83
  17.8915         86
  17.9100         85
  17.9286         75
  17.9472         90
  17.9658         91
  17.9843         66
  18.0029         80
  18.0215         89
  18.0401         85
  18.0586         74
  18.0772         91
  18.0958         77
  18.1144         82
  18.1329         82
  18.1515         74
  18.1701         71
  18.1887         91
  18.2073         85
  18.2258         83
  18.2444         70
  18.2630         71
  18.2816         92
  18.3001         74
  18.3187         70
  18.3373         86
  18.3559         88
  18.3744         92
  18.3930         87
  18.4116         83
  18.4302         95
  18.4487         76
  18.4673         78
  18.4859         71
  18.5045         91
  18.5230         90
  18.5416         69
  18.5602         74
  18.5788         85
  18.5973         96
  18.6159         86
  18.6345         83
  18.6531         89
  18.6716         81
  18.6902         83
  18.7088         82
  18.7274         90
  18.7459         85
  18.7645         75
  18.7831         79
  18.8017         82
  18.8202         76
  18.8388        104
  18.8574         94
  18.8760         86
  18.8945        101
  18.9131         79
  18.9317        100
  18.9503         85
  18.9689         88
  18.9874         75
  19.0060         78
  19.0246         70
  19.0432         83
  19.0617         66
  19.0803         85
  19.0989         62
  19.1175         73
  19.1360        102
  19.1546         83
  19.1732        100
  19.1918         79
  19.2103         86
  19.2289         91
  19.2475         87
  19.2661         85
  19.2846         76
  19.3032         83
  19.3218         86
  19.3404         68
  19.3589         78
  19.3775         75
  19.3961         86
  19.4147         81
  19.4332         79
  19.4518         84
  19.4704        112
  19.4890         75
  19.5075        102
  19.5261         77
  19.5447         74
  19.5633         99
  19.5818         91
  19.6004         96
  19.6190         97
  19.6376         88
  19.6561        104
  19.6747         74
  19.6933         78
  19.7119        109
  19.7305        101
  19.7490         96
  19.7676         86
  19.7862         96
  19.8048        101
  19.8233         86
  19.8419         86
  19.8605         69
  19.8791         82
  19.8976         94
  19.9162         77
  19.9348         71
  19.9534         85
  19.9719         75
  19.9905         94
  20.0091         82
  20.0277         82
  20.0462         84
  20.0648         80
  20.0834         78
  20.1020         77
  20.1205        101
  20.1391         88
  20.1577         82
  20.1763         86
  20.1948         88
  20.2134         91
  20.2320         89
  20.2506         84
  20.2691        101
  20.2877         81
  20.3063         90
  20.3249         99
  20.3434         89
  20.3620         83
  20.3806        101
  20.3992         94
  20.4177         82
  20.4363         89
  20.4549         95
  20.4735        105
  20.4921        100
  20.5106         93
  20.5292         99
  20.5478        103
  20.5664         82
  20.5849         90
  20.6035         74
  20.6221        100
  20.6407         92
  20.6592         92
  20.6778         92
  20.6964         91
  20.7150         79
  20.7335         95
  20.7521         97
  20.7707         83
  20.7893        102
  20.8078         85
  20.8264         92
  20.8450         77
  20.8636         90
  20.8821         88
  20.9007         93
  20.9193         90
  20.9379         92
  20.9564        102
  20.9750        105
  20.9936         91
  21.0122        105
  21.0307         88
  21.0493         90
  21.0679         99
  21.0865         95
  21.1050        117
  21.1236         95
  21.1422        120
  21.1608        110
  21.1793        115
  21.1979        151
  21.2165        139
  21.2351        153
  21.2537        150
  21.2722        145
  21.2908        140
  21.3094        154
  21.3280        200
  21.3465        241
  21.3651        231
  21.3837        221
  21.4023        189
  21.4208        152
  21.4394        160
  21.4580        115
  21.4766         90
  21.4951        112
  21.5137        102
  21.5323         99
  21.5509        117
  21.5694         99
  21.5880         93
  21.6066         97
  21.6252         94
  21.6437        103
  21.6623         99
  21.6809        117
  21.6995         95
  21.7180         97
  21.7366        108
  21.7552         95
  21.7738        100
  21.7923         99
  21.8109         99
  21.8295        119
  21.8481         91
  21.8666         81
  21.8852         86
  21.9038         89
  21.9224        116
  21.9409         87
  21.9595         88
  21.9781         99
  21.9967         86
  22.0152        112
  22.0338         95
  22.0524         88
  22.0710         92
  22.0896         94
  22.1081         92
  22.1267         99
  22.1453         88
  22.1639         93
  22.1824         83
  22.2010         84
  22.2196         94
  22.2382         84
  22.2567        105
  22.2753         89
  22.2939         87
  22.3125         79
  22.3310        115
  22.3496         98
  22.3682         95
  22.3868        106
  22.4053        108
  22.4239        102
  22.4425         84
  22.4611         93
  22.4796         89
  22.4982         88
  22.5168        101
  22.5354        106
  22.5539         86
  22.5725        104
  22.5911        102
  22.6097        100
  22.6282         90
  22.6468         89
  22.6654        108
  22.6840        105
  22.7025         92
  22.7211         98
  22.7397         94
  22.7583         96
  22.7768         89
  22.7954        100
  22.8140         87
  22.8326         79
  22.8512        106
  22.8697        100
  22.8883        105
  22.9069         86
  22.9255         88
  22.9440         96
  22.9626         88
  22.9812        100
  22.9998        108
  23.0183        104
  23.0369         88
  23.0555         95
  23.0741        106
  23.0926        108
  23.1112         89
  23.1298        110
  23.1484        102
  23.1669         81
  23.1855        100
  23.2041         92
  23.2227         96
  23.2412        104
  23.2598        105
  23.2784         89
  23.2970         97
  23.3155        114
  23.3341        113
  23.3527         98
  23.3713        105
  23.3898         91
  23.4084        126
  23.4270         96
  23.4456        103
  23.4641         86
  23.4827         81
  23.5013        128
  23.5199         90
  23.5384        103
  23.5570         90
  23.5756         85
  23.5942        115
  23.6128         97
  23.6313         85
  23.6499         86
  23.6685        105
  23.6871        121
  23.7056         97
  23.7242         87
  23.7428         84
  23.7614         76
  23.7799         96
  23.7985        105
  23.8171         95
  23.8357        104
  23.8542        115
  23.8728         92
  23.8914        103
  23.9100        107
  23.9285         95
  23.9471        108
  23.9657        105
  23.9843         99
  24.0028        104
  24.0214        100
  24.0400         84
  24.0586        100
  24.0771        122
  24.0957        105
  24.1143         84
  24.1329         99
  24.1514        114
  24.1700         93
  24.1886        120
  24.2072        112
  24.2257        108
  24.2443        135
  24.2629         90
  24.2815        122
  24.3000        128
  24.3186        110
  24.3372         93
  24.3558        110
  24.3744        103
  24.3929        115
  24.4115         97
  24.4301        105
  24.4487        123
  24.4672         89
  24.4858         98
  24.5044         82
  24.5230        110
  24.5415        101
  24.5601         92
  24.5787        101
  24.5973         93
  24.6158        129
  24.6344         92
  24.6530         98
  24.6716        103
  24.6901         94
  24.7087        106
  24.7273        103
  24.7459         94
  24.7644         96
  24.7830        112
  24.8016        124
  24.8202         88
  24.8387         98
  24.8573         89
  24.8759         99
  24.8945         94
  24.9130         88
  24.9316         88
  24.9502         85
  24.9688         92
  24.9873         91
  25.0059        113
  25.0245         98
  25.0431        100
  25.0616         82
  25.0802         92
  25.0988         84
  25.1174         91
  25.1360         96
  25.1545        123
  25.1731         94
  25.1917        107
  25.2103        109
  25.2288        117
  25.2474         79
  25.2660        108
  25.2846         81
  25.3031        106
  25.3217         94
  25.3403         92
  25.3589         74
  25.3774         85
  25.3960         69
  25.4146         79
  25.4332         99
  25.4517         93
  25.4703         93
  25.4889         76
  25.5075        114
  25.5260        107
  25.5446        108
  25.5632         97
  25.5818        100
  25.6003         81
  25.6189        117
  25.6375         77
  25.6561         88
  25.6746         86
  25.6932         97
  25.7118        107
  25.7304         84
  25.7489         93
  25.7675        104
  25.7861         89
  25.8047         99
  25.8232         97
  25.8418         94
  25.8604         96
  25.8790         83
  25.8976         95
  25.9161         79
  25.9347        101
  25.9533         92
  25.9719         86
  25.9904         83
  26.0090         96
  26.0276        100
  26.0462         96
  26.0647         93
  26.0833         91
  26.1019         82
  26.1205         99
  26.1390         96
  26.1576         87
  26.1762         83
  26.1948         91
  26.2133         97
  26.2319         86
  26.2505        110
  26.2691         71
  26.2876         97
  26.3062         92
  26.3248         84
  26.3434         91
  26.3619         89
  26.3805         82
  26.3991         90
  26.4177        121
  26.4362         92
  26.4548         88
  26.4734         89
  26.4920         84
  26.5105         93
  26.5291         87
  26.5477         99
  26.5663         87
  26.5848         93
  26.6034         87
  26.6220         92
  26.6406        100
  26.6591         88
  26.6777         93
  26.6963         93
  26.7149         93
  26.7335         91
  26.7520         76
  26.7706        109
  26.7892         90
  26.8078         91
  26.8263        104
  26.8449         84
  26.8635         89
  26.8821         81
  26.9006         91
  26.9192        101
  26.9378         91
  26.9564         90
  26.9749         88
  26.9935         91
  27.0121         99
  27.0307        106
  27.0492        102
  27.0678         79
  27.0864         91
  27.1050         98
  27.1235         95
  27.1421         95
  27.1607        120
  27.1793        115
  27.1978        120
  27.2164         89
  27.2350        138
  27.2536        111
  27.2721        121
  27.2907        109
  27.3093        110
  27.3279         92
  27.3464         95
  27.3650         98
  27.3836         81
  27.4022         95
  27.4207         73
  27.4393         97
  27.4579         90
  27.4765         95
  27.4951         80
  27.5136         95
  27.5322         89
  27.5508         75
  27.5694         95
  27.5879         82
  27.6065         72
  27.6251         84
  27.6437         82
  27.6622         82
  27.6808         96
  27.6994         91
  27.7180         81
  27.7365         82
  27.7551         90
  27.7737         98
  27.7923         94
  27.8108         96
  27.8294         95
  27.8480         76
  27.8666         91
  27.8851         87
  27.9037         85
  27.9223         79
  27.9409         95
  27.9594         77
  27.9780         87
  27.9966         96
  28.0152         84
  28.0337         81
  28.0523         81
  28.0709         84
  28.0895         85
  28.1080         88
  28.1266         89
  28.1452         85
  28.1638         80
  28.1823         84
  28.2009         84
  28.2195         97
  28.2381         89
  28.2567         81
  28.2752         89
  28.2938         84
  28.3124         68
  28.3310         81
  28.3495         84
  28.3681         71
  28.3867         75
  28.4053         95
  28.4238         86
  28.4424         79
  28.4610         89
  28.4796         57
  28.4981         93
  28.5167         71
  28.5353         81
  28.5539         80
  28.5724         75
  28.5910         74
  28.6096         83
  28.6282         79
  28.6467         82
  28.6653         86
  28.6839         91
  28.7025         97
  28.7210         81
  28.7396         72
  28.7582         84
  28.7768         81
  28.7953         94
  28.8139         84
  28.8325         88
  28.8511         80
  28.8696         89
  28.8882         85
  28.9068         65
  28.9254         79
  28.9439         79
  28.9625         83
  28.9811         76
  28.9997         72
  29.0183         66
  29.0368         77
  29.0554         73
  29.0740         81
  29.0926         80
  29.1111         91
  29.1297         80
  29.1483         85
  29.1669         75
  29.1854         79
  29.2040         89
  29.2226         75
  29.2412         73
  29.2597         73
  29.2783         80
  29.2969         75
  29.3155         93
  29.3340         78
  29.3526         80
  29.3712         80
  29.3898         96
  29.4083         74
  29.4269         73
  29.4455         72
  29.4641         96
  29.4826         86
  29.5012         73
  29.5198         76
  29.5384         80
  29.5569         96
  29.5755         65
  29.5941         64
  29.6127         75
  29.6312         80
  29.6498         75
  29.6684         85
  29.6870         64
  29.7055         84
  29.7241         67
  29.7427         84
  29.7613         67
  29.7799         88
  29.7984         79
  29.8170         71
  29.8356         64
  29.8542         79
  29.8727         83
  29.8913         84
  29.9099         71
  29.9285         86
  29.9470         67
  29.9656         78
  29.9842         61
  30.0028         75
  30.0213         75
  30.0399         93
  30.0585         75
  30.0771         74
  30.0956         68
  30.1142         73
  30.1328         69
  30.1514         80
  30.1699         67
  30.1885         79
  30.2071         73
  30.2257         88
  30.2442         76
  30.2628         95
  30.2814         54
  30.3000         79
  30.3185         91
  30.3371        104
  30.3557        106
  30.3743        189
  30.3928        170
  30.4114        125
  30.4300        144
  30.4486         95
  30.4671        137
  30.4857        108
  30.5043        100
  30.5229         76
  30.5415         89
  30.5600         85
  30.5786         96
  30.5972         71
  30.6158         86
  30.6343         84
  30.6529         73
  30.6715         82
  30.6901         56
  30.7086         79
  30.7272         63
  30.7458         86
  30.7644         57
  30.7829         61
  30.8015         63
  30.8201         78
  30.8387         71
  30.8572         68
  30.8758         64
  30.8944         63
  30.9130         69
  30.9315         81
  30.9501         73
  30.9687         74
  30.9873         82
  31.0058         66
  31.0244         67
  31.0430         62
  31.0616         81
  31.0801         84
  31.0987         71
  31.1173         63
  31.1359         50
  31.1544         59
  31.1730         77
  31.1916         74
  31.2102         70
  31.2287         70
  31.2473         63
  31.2659         65
  31.2845         56
  31.3030         69
  31.3216         67
  31.3402         64
  31.3588         71
  31.3774         66
  31.3959         73
  31.4145         75
  31.4331         67
  31.4517         77
  31.4702         79
  31.4888         85
  31.5074         66
  31.5260         64
  31.5445         64
  31.5631         82
  31.5817         74
  31.6003         65
  31.6188         56
  31.6374         70
  31.6560         72
  31.6746         73
  31.6931         64
  31.7117         68
  31.7303         70
  31.7489         58
  31.7674         67
  31.7860         48
  31.8046         47
  31.8232         60
  31.8417         70
  31.8603         68
  31.8789         71
  31.8975         61
  31.9160         64
  31.9346         57
  31.9532         66
  31.9718         72
  31.9903         74
  32.0089         58
  32.0275         68
  32.0461         70
  32.0646         56
  32.0832         66
  32.1018         69
  32.1204         62
  32.1390         53
  32.1575         71
  32.1761         60
  32.1947         77
  32.2133         73
  32.2318         68
  32.2504         64
  32.2690         73
  32.2876         73
  32.3061         73
  32.3247         72
  32.3433         81
  32.3619         63
  32.3804         65
  32.3990         68
  32.4176         62
  32.4362         84
  32.4547         70
  32.4733         62
  32.4919         64
  32.5105         84
  32.5290         74
  32.5476         77
  32.5662         66
  32.5848         72
  32.6033         69
  32.6219         65
  32.6405         71
  32.6591         79
  32.6776         73
  32.6962         63
  32.7148         58
  32.7334         62
  32.7519         62
  32.7705         52
  32.7891         53
  32.8077         80
  32.8262         46
  32.8448         63
  32.8634         60
  32.8820         67
  32.9006         52
  32.9191         68
  32.9377         56
  32.9563         60
  32.9749         65
  32.9934         69
  33.0120         64
  33.0306         62
  33.0492         54
  33.0677         52
  33.0863         58
  33.1049         54
  33.1235         70
  33.1420         69
  33.1606         71
  33.1792         58
  33.1978         52
  33.2163         65
  33.2349         61
  33.2535         51
  33.2721         58
  33.2906         65
  33.3092         60
  33.3278         56
  33.3464         65
  33.3649         54
  33.3835         57
  33.4021         59
  33.4207         56
  33.4392         68
  33.4578         68
  33.4764         60
  33.4950         54
  33.5135         47
  33.5321         51
  33.5507         52
  33.5693         57
  33.5878         59
  33.6064         55
  33.6250         68
  33.6436         48
  33.6622         51
  33.6807         52
  33.6993         57
  33.7179         70
  33.7365         56
  33.7550         54
  33.7736         55
  33.7922         59
  33.8108         47
  33.8293         62
  33.8479         62
  33.8665         60
  33.8851         61
  33.9036         58
  33.9222         57
  33.9408         53
  33.9594         55
  33.9779         60
  33.9965         56
  34.0151         51
  34.0337         50
  34.0522         53
  34.0708         59
  34.0894         57
  34.1080         57
  34.1265         50
  34.1451         48
  34.1637         52
  34.1823         73
  34.2008         49
  34.2194         54
  34.2380         57
  34.2566         66
  34.2751         65
  34.2937         52
  34.3123         54
  34.3309         64
  34.3494         55
  34.3680         46
  34.3866         52
  34.4052         62
  34.4238         67
  34.4423         65
  34.4609         64
  34.4795         58
  34.4981         61
  34.5166         44
  34.5352         54
  34.5538         70
  34.5724         57
  34.5909         62
  34.6095         54
  34.6281         57
  34.6467         68
  34.6652         62
  34.6838         69
  34.7024         70
  34.7210         76
  34.7395         59
  34.7581         75
  34.7767         76
  34.7953         81
  34.8138         65
  34.8324         64
  34.8510         73
  34.8696         51
  34.8881         57
  34.9067         61
  34.9253         60
  34.9439         47
  34.9624         49
  34.9810         46
  34.9996         65
  35.0182         53
  35.0367         65
  35.0553         62
  35.0739         60
  35.0925         45
  35.1110         58
  35.1296         43
  35.1482         52
  35.1668         41
  35.1854         50
  35.2039         50
  35.2225         58
  35.2411         53
  35.2597         46
  35.2782         41
  35.2968         52
  35.3154         49
  35.3340         44
  35.3525         46
  35.3711         61
  35.3897         49
  35.4083         46
  35.4268         47
  35.4454         47
  35.4640         35
  35.4826         51
  35.5011         48
  35.5197         49
  35.5383         54
  35.5569         53
  35.5754         40
  35.5940         38
  35.6126         53
  35.6312         61
  35.6497         51
  35.6683         47
  35.6869         53
  35.7055         53
  35.7240         48
  35.7426         39
  35.7612         53
  35.7798         43
  35.7983         42
  35.8169         44
  35.8355         49
  35.8541         55
  35.8726         34
  35.8912         48
  35.9098         37
  35.9284         41
  35.9469         55
  35.9655         46
  35.9841         58
  36.0027         47
  36.0213         48
  36.0398         47
  36.0584         50
  36.0770         37
  36.0956         57
  36.1141         54
  36.1327         50
  36.1513         52
  36.1699         48
  36.1884         45
  36.2070         46
  36.2256         59
  36.2442         38
  36.2627         44
  36.2813         43
  36.2999         44
  36.3185         40
  36.3370         47
  36.3556         51
  36.3742         36
  36.3928         55
  36.4113         45
  36.4299         36
  36.4485         44
  36.4671         49
  36.4856         42
  36.5042         48
  36.5228         51
  36.5414         43
  36.5599         45
  36.5785         59
  36.5971         41
  36.6157         40
  36.6342         44
  36.6528         39
  36.6714         43
  36.6900         58
  36.7085         46
  36.7271         47
  36.7457         48
  36.7643         44
  36.7829         39
  36.8014         40
  36.8200         55
  36.8386         32
  36.8572         39
  36.8757         45
  36.8943         38
  36.9129         32
  36.9315         45
  36.9500         33
  36.9686         42
  36.9872         48
  37.0058         46
  37.0243         36
  37.0429         38
  37.0615         41
  37.0801         57
  37.0986         39
  37.1172         46
  37.1358         45
  37.1544         57
  37.1729         44
  37.1915         48
  37.2101         51
  37.2287         52
  37.2472         53
  37.2658         50
  37.2844         52
  37.3030         46
  37.3215         37
  37.3401         51
  37.3587         57
  37.3773         50
  37.3958         73
  37.4144         58
  37.4330         70
  37.4516         69
  37.4701         56
  37.4887         58
  37.5073         53
  37.5259         68
  37.5445         51
  37.5630         59
  37.5816         62
  37.6002         47
  37.6188         37
  37.6373         31
  37.6559         40
  37.6745         55
  37.6931         41
  37.7116         45
  37.7302         41
  37.7488         54
  37.7674         38
  37.7859         49
  37.8045         52
  37.8231         37
  37.8417         41
  37.8602         28
  37.8788         44
  37.8974         41
  37.9160         41
  37.9345         55
  37.9531         42
  37.9717         49
  37.9903         50
  38.0088         60
  38.0274         38
  38.0460         54
  38.0646         51
  38.0831         39
  38.1017         36
  38.1203         50
  38.1389         35
  38.1574         46
  38.1760         40
  38.1946         46
  38.2132         42
  38.2317         49
  38.2503         41
  38.2689         43
  38.2875         34
  38.3061         49
  38.3246         38
  38.3432         32
  38.3618         41
  38.3804         48
  38.3989         31
  38.4175         36
  38.4361         55
  38.4547         36
  38.4732         47
  38.4918         45
  38.5104         21
  38.5290         48
  38.5475         30
  38.5661         34
  38.5847         35
  38.6033         33
  38.6218         38
  38.6404         34
  38.6590         36
  38.6776         35
  38.6961         43
  38.7147         49
  38.7333         39
  38.7519         35
  38.7704         42
  38.7890         37
  38.8076         49
  38.8262         51
  38.8447         40
  38.8633         48
  38.8819         54
  38.9005         36
  38.9190         66
  38.9376         48
  38.9562         41
  38.9748         56
  38.9933         32
  39.0119         42
  39.0305         38
  39.0491         48
  39.0677         43
  39.0862         34
  39.1048         34
  39.1234         46
  39.1420         39
  39.1605         41
  39.1791         41
  39.1977         37
  39.2163         40
  39.2348         38
  39.2534         38
  39.2720         50
  39.2906         31
  39.3091         41
  39.3277         43
  39.3463         42
  39.3649         40
  39.3834         39
  39.4020         41
  39.4206         41
  39.4392         37
  39.4577         51
  39.4763         32
  39.4949         41
  39.5135         40
  39.5320         39
  39.5506         42
  39.5692         30
  39.5878         42
  39.6063         36
  39.6249         41
  39.6435         31
  39.6621         49
  39.6806         37
  39.6992         30
  39.7178         41
  39.7364         42
  39.7549         44
  39.7735         40
  39.7921         40
  39.8107         28
  39.8293         44
  39.8478         44
  39.8664         50
  39.8850         36
  39.9036         47
  39.9221         43
  39.9407         37
  39.9593         31
  39.9779         34
  39.9964         30
  40.0150         31
  40.0336         34
  40.0522         48
  40.0707         47
  40.0893         47
  40.1079         44
  40.1265         33
  40.1450         41
  40.1636         44
  40.1822         35
  40.2008         38
  40.2193         35
  40.2379         28
  40.2565         28
  40.2751         33
  40.2936         45
  40.3122         41
  40.3308         48
  40.3494         43
  40.3679         38
  40.3865         37
  40.4051         32
  40.4237         37
  40.4422         37
  40.4608         36
  40.4794         46
  40.4980         50
  40.5165         28
  40.5351         26
  40.5537         27
  40.5723         33
  40.5908         37
  40.6094         32
  40.6280         37
  40.6466         37
  40.6652         40
  40.6837         36
  40.7023         31
  40.7209         51
  40.7395         37
  40.7580         36
  40.7766         35
  40.7952         35
  40.8138         46
  40.8323         34
  40.8509         35
  40.8695         36
  40.8881         45
  40.9066         37
  40.9252         42
  40.9438         45
  40.9624         30
  40.9809         49
  40.9995         36
  41.0181         40
  41.0367         40
  41.0552         43
  41.0738         43
  41.0924         45
  41.1110         44
  41.1295         38
  41.1481         44
  41.1667         44
  41.1853         48
  41.2038         40
  41.2224         41
  41.2410         31
  41.2596         35
  41.2781         39
  41.2967         33
  41.3153         37
  41.3339         44
  41.3524         35
  41.3710         33
  41.3896         44
  41.4082         42
  41.4268         40
  41.4453         39
  41.4639         43
  41.4825         41
  41.5011         36
  41.5196         33
  41.5382         40
  41.5568         33
  41.5754         42
  41.5939         46
  41.6125         34
  41.6311         50
  41.6497         42
  41.6682         29
  41.6868         30
  41.7054         34
  41.7240         40
  41.7425         41
  41.7611         38
  41.7797         27
  41.7983         26
  41.8168         25
  41.8354         49
  41.8540         32
  41.8726         38
  41.8911         44
  41.9097         41
  41.9283         29
  41.9469         41
  41.9654         33
  41.9840         35
  42.0026         42
  42.0212         43
  42.0397         28
  42.0583         38
  42.0769         28
  42.0955         40
  42.1140         34
  42.1326         38
  42.1512         35
  42.1698         32
  42.1884         35
  42.2069         35
  42.2255         50
  42.2441         29
  42.2627         37
  42.2812         32
  42.2998         32
  42.3184         32
  42.3370         38
  42.3555         38
  42.3741         41
  42.3927         37
  42.4113         40
  42.4298         39
  42.4484         36
  42.4670         46
  42.4856         41
  42.5041         31
  42.5227         36
  42.5413         34
  42.5599         38
  42.5784         44
  42.5970         31
  42.6156         41
  42.6342         30
  42.6527         57
  42.6713         33
  42.6899         31
  42.7085         38
  42.7270         42
  42.7456         46
  42.7642         32
  42.7828         32
  42.8013         38
  42.8199         32
  42.8385         33
  42.8571         38
  42.8756         35
  42.8942         37
  42.9128         43
  42.9314         36
  42.9500         27
  42.9685         35
  42.9871         42
  43.0057         35
  43.0243         35
  43.0428         40
  43.0614         44
  43.0800         40
  43.0986         39
  43.1171         33
  43.1357         37
  43.1543         37
  43.1729         43
  43.1914         39
  43.2100         37
  43.2286         38
  43.2472         47
  43.2657         43
  43.2843         38
  43.3029         45
  43.3215         36
  43.3400         34
  43.3586         50
  43.3772         35
  43.3958         48
  43.4143         46
  43.4329         44
  43.4515         38
  43.4701         40
  43.4886         58
  43.5072         66
  43.5258         50
  43.5444         35
  43.5629         38
  43.5815         54
  43.6001         41
  43.6187         52
  43.6372         44
  43.6558         38
  43.6744         49
  43.6930         43
  43.7116         30
  43.7301         40
  43.7487         42
  43.7673         37
  43.7859         46
  43.8044         41
  43.8230         30
  43.8416         34
  43.8602         39
  43.8787         35
  43.8973         23
  43.9159         41
  43.9345         26
  43.9530         36
  43.9716         31
  43.9902         32
  44.0088         41
  44.0273         34
  44.0459         42
  44.0645         34
  44.0831         43
  44.1016         31
  44.1202         31
  44.1388         27
  44.1574         33
  44.1759         31
  44.1945         34
  44.2131         49
  44.2317         30
  44.2502         34
  44.2688         34
  44.2874         45
  44.3060         33
  44.3245         44
  44.3431         41
  44.3617         47
  44.3803         32
  44.3988         37
  44.4174         45
  44.4360         47
  44.4546         40
  44.4732         40
  44.4917         47
  44.5103         40
  44.5289         36
  44.5475         43
  44.5660         31
  44.5846         35
  44.6032         36
  44.6218         34
  44.6403         35
  44.6589         42
  44.6775         41
  44.6961         38
  44.7146         39
  44.7332         31
  44.7518         39
  44.7704         28
  44.7889         40
  44.8075         42
  44.8261         27
  44.8447         38
  44.8632         27
  44.8818         40
  44.9004         43
  44.9190         26
  44.9375         26
  44.9561         46
  44.9747         31
  44.9933         34
  45.0118         28
  45.0304         23
  45.0490         47
  45.0676         37
  45.0861         27
  45.1047         33
  45.1233         28
  45.1419         27
  45.1604         34
  45.1790         35
  45.1976         42
  45.2162         37
  45.2347         49
  45.2533         36
  45.2719         33
  45.2905         43
  45.3091         27
  45.3276         33
  45.3462         35
  45.3648         34
  45.3834         42
  45.4019         36
  45.4205         30
  45.4391         36
  45.4577         37
  45.4762         36
  45.4948         35
  45.5134         42
  45.5320         44
  45.5505         23
  45.5691         33
  45.5877         28
  45.6063         28
  45.6248         30
  45.6434         34
  45.6620         30
  45.6806         34
  45.6991         25
  45.7177         27
  45.7363         44
  45.7549         44
  45.7734         32
  45.7920         28
  45.8106         36
  45.8292         32
  45.8477         39
  45.8663         36
  45.8849         44
  45.9035         42
  45.9220         32
  45.9406         33
  45.9592         30
  45.9778         32
  45.9963         33
  46.0149         24
  46.0335         25
  46.0521         28
  46.0707         29
  46.0892         36
  46.1078         32
  46.1264         41
  46.1450         30
  46.1635         42
  46.1821         27
  46.2007         32
  46.2193         27
  46.2378         44
  46.2564         33
  46.2750         29
  46.2936         38
  46.3121         26
  46.3307         35
  46.3493         35
  46.3679         36
  46.3864         31
  46.4050         36
  46.4236         20
  46.4422         33
  46.4607         33
  46.4793         43
  46.4979         29
  46.5165         29
  46.5350         21
  46.5536         25
  46.5722         32
  46.5908         32
  46.6093         28
  46.6279         31
  46.6465         38
  46.6651         37
  46.6836         36
  46.7022         32
  46.7208         30
  46.7394         35
  46.7579         36
  46.7765         29
  46.7951         33
  46.8137         25
  46.8323         24
  46.8508         31
  46.8694         25
  46.8880         34
  46.9066         45
  46.9251         26
  46.9437         32
  46.9623         22
  46.9809         30
  46.9994         33
  47.0180         29
  47.0366         28
  47.0552         27
  47.0737         39
  47.0923         34
  47.1109         30
  47.1295         32
  47.1480         26
  47.1666         29
  47.1852         43
  47.2038         29
  47.2223         32
  47.2409         36
  47.2595         38
  47.2781         29
  47.2966         22
  47.3152         31
  47.3338         33
  47.3524         36
  47.3709         35
  47.3895         39
  47.4081         30
  47.4267         21
  47.4452         28
  47.4638         33
  47.4824         33
  47.5010         33
  47.5195         35
  47.5381         29
  47.5567         35
  47.5753         29
  47.5939         32
  47.6124         35
  47.6310         28
  47.6496         28
  47.6682         29
  47.6867         36
  47.7053         27
  47.7239         29
  47.7425         23
  47.7610         25
  47.7796         23
  47.7982         42
  47.8168         42
  47.8353         27
  47.8539         28
  47.8725         32
  47.8911         33
  47.9096         35
  47.9282         28
  47.9468         36
  47.9654         38
  47.9839         42
  48.0025         25
  48.0211         29
  48.0397         37
  48.0582         32
  48.0768         25
  48.0954         26
  48.1140         34
  48.1325         33
  48.1511         31
  48.1697         36
  48.1883         34
  48.2068         33
  48.2254         26
  48.2440         27
  48.2626         31
  48.2811         28
  48.2997         33
  48.3183         26
  48.3369         32
  48.3555         31
  48.3740         30
  48.3926         41
  48.4112         24
  48.4298         38
  48.4483         34
  48.4669         24
  48.4855         32
  48.5041         34
  48.5226         33
  48.5412         32
  48.5598         31
  48.5784         35
  48.5969         39
  48.6155         36
  48.6341         25
  48.6527         32
  48.6712         32
  48.6898         29
  48.7084         25
  48.7270         34
  48.7455         27
  48.7641         36
  48.7827         20
  48.8013         28
  48.8198         38
  48.8384         37
  48.8570         46
  48.8756         35
  48.8941         31
  48.9127         58
  48.9313         50
  48.9499         54
  48.9684         57
  48.9870         52
  49.0056         42
  49.0242         35
  49.0427         37
  49.0613         35
  49.0799         50
  49.0985         51
  49.1171         43
  49.1356         27
  49.1542         38
  49.1728         24
  49.1914         33
  49.2099         23
  49.2285         28
  49.2471         27
  49.2657         30
  49.2842         31
  49.3028         25
  49.3214         24
  49.3400         29
  49.3585         26
  49.3771         30
  49.3957         34
  49.4143         25
  49.4328         42
  49.4514         33
  49.4700         27
  49.4886         32
  49.5071         32
  49.5257         28
  49.5443         33
  49.5629         40
  49.5814         28
  49.6000         31
  49.6186         27
  49.6372         29
  49.6557         22
  49.6743         34
  49.6929         38
  49.7115         26
  49.7300         33
  49.7486         25
  49.7672         31
  49.7858         26
  49.8043         31
  49.8229         28
  49.8415         24
  49.8601         28
  49.8786         39
  49.8972         23
  49.9158         27
  49.9344         31
  49.9530         38
  49.9715         37
  49.9901         30
  50.0087         30
  50.0273         34
  50.0458         35
  50.0644         26
  50.0830         27
  50.1016         30
  50.1201         16
  50.1387         29
  50.1573         27
  50.1759         19
  50.1944         33
  50.2130         35
  50.2316         35
  50.2502         31
  50.2687         23
  50.2873         33
  50.3059         32
  50.3245         27
  50.3430         23
  50.3616         24
  50.3802         33
  50.3988         36
  50.4173         33
  50.4359         27
  50.4545         36
  50.4731         32
  50.4916         29
  50.5102         30
  50.5288         30
  50.5474         26
  50.5659         24
  50.5845         34
  50.6031         23
  50.6217         42
  50.6402         33
  50.6588         28
  50.6774         37
  50.6960         25
  50.7146         28
  50.7331         33
  50.7517         26
  50.7703         29
  50.7889         27
  50.8074         35
  50.8260         22
  50.8446         24
  50.8632         35
  50.8817         27
  50.9003         29
  50.9189         24
  50.9375         33
  50.9560         28
  50.9746         25
  50.9932         29
  51.0118         29
  51.0303         32
  51.0489         25
  51.0675         31
  51.0861         27
  51.1046         41
  51.1232         28
  51.1418         25
  51.1604         28
  51.1789         35
  51.1975         25
  51.2161         28
  51.2347         31
  51.2532         23
  51.2718         33
  51.2904         29
  51.3090         43
  51.3275         37
  51.3461         27
  51.3647         21
  51.3833         40
  51.4018         16
  51.4204         36
  51.4390         37
  51.4576         30
  51.4762         33
  51.4947         34
  51.5133         28
  51.5319         33
  51.5505         36
  51.5690         45
  51.5876         30
  51.6062         31
  51.6248         39
  51.6433         41
  51.6619         27
  51.6805         24
  51.6991         31
  51.7176         27
  51.7362         31
  51.7548         33
  51.7734         38
  51.7919         25
  51.8105         39
  51.8291         27
  51.8477         30
  51.8662         24
  51.8848         37
  51.9034         23
  51.9220         29
  51.9405         27
  51.9591         24
  51.9777         28
  51.9963         24
  52.0148         26
  52.0334         35
  52.0520         24
  52.0706         25
  52.0891         26
  52.1077         29
  52.1263         38
  52.1449         31
  52.1634         33
  52.1820         23
  52.2006         27
  52.2192         29
  52.2378         23
  52.2563         27
  52.2749         32
  52.2935         31
  52.3121         32
  52.3306         23
  52.3492         24
  52.3678         21
  52.3864         20
  52.4049         30
  52.4235         31
  52.4421         26
  52.4607         31
  52.4792         23
  52.4978         26
  52.5164         25
  52.5350         31
  52.5535         32
  52.5721         20
  52.5907         26
  52.6093         31
  52.6278         24
  52.6464         29
  52.6650         28
  52.6836         31
  52.7021         36
  52.7207         32
  52.7393         29
  52.7579         22
  52.7764         30
  52.7950         34
  52.8136         28
  52.8322         27
  52.8507         28
  52.8693         41
  52.8879         39
  52.9065         19
  52.9250         22
  52.9436         44
  52.9622         26
  52.9808         28
  52.9994         42
  53.0179         27
  53.0365         33
  53.0551         25
  53.0737         36
  53.0922         31
  53.1108         31
  53.1294         27
  53.1480         37
  53.1665         26
  53.1851         26
  53.2037         27
  53.2223         25
  53.2408         25
  53.2594         26
  53.2780         32
  53.2966         30
  53.3151         34
  53.3337         27
  53.3523         26
  53.3709         31
  53.3894         25
  53.4080         29
  53.4266         26
  53.4452         29
  53.4637         30
  53.4823         31
  53.5009         30
  53.5195         31
  53.5380         30
  53.5566         29
  53.5752         29
  53.5938         31
  53.6123         33
  53.6309         23
  53.6495         25
  53.6681         37
  53.6866         37
  53.7052         23
  53.7238         26
  53.7424         30
  53.7610         24
  53.7795         27
  53.7981         28
  53.8167         26
  53.8353         33
  53.8538         33
  53.8724         29
  53.8910         31
  53.9096         27
  53.9281         33
  53.9467         31
  53.9653         40
  53.9839         40
  54.0024         41
  54.0210         34
  54.0396         29
  54.0582         30
  54.0767         20
  54.0953         31
  54.1139         33
  54.1325         29
  54.1510         44
  54.1696         32
  54.1882         27
  54.2068         30
  54.2253         35
  54.2439         26
  54.2625         25
  54.2811         29
  54.2996         33
  54.3182         27
  54.3368         39
  54.3554         29
  54.3739         32
  54.3925         23
  54.4111         35
  54.4297         24
  54.4482         37
  54.4668         32
  54.4854         24
  54.5040         21
  54.5225         25
  54.5411         38
  54.5597         24
  54.5783         26
  54.5969         31
  54.6154         26
  54.6340         32
  54.6526         24
  54.6712         25
  54.6897         23
  54.7083         32
  54.7269         23
  54.7455         25
  54.7640         25
  54.7826         26
  54.8012         20
  54.8198         29
  54.8383         28
  54.8569         27
  54.8755         24
  54.8941         27
  54.9126         27
  54.9312         36
  54.9498         23
  54.9684         31
  54.9869         27
  55.0055         30
  55.0241         30
  55.0427         28
  55.0612         33
  55.0798         31
  55.0984         26
  55.1170         33
  55.1355         18
  55.1541         30
  55.1727         24
  55.1913         37
  55.2098         29
  55.2284         31
  55.2470         35
  55.2656         32
  55.2841         22
  55.3027         30
  55.3213         23
  55.3399         24
  55.3585         26
  55.3770         33
  55.3956         26
  55.4142         39
  55.4328         26
  55.4513         30
  55.4699         24
  55.4885         27
  55.5071         30
  55.5256         30
  55.5442         22
  55.5628         29
  55.5814         25
  55.5999         31
  55.6185         22
  55.6371         17
  55.6557         23
  55.6742         27
  55.6928         25
  55.7114         15
  55.7300         24
  55.7485         28
  55.7671         27
  55.7857         27
  55.8043         34
  55.8228         41
  55.8414         33
  55.8600         30
  55.8786         26
  55.8971         38
  55.9157         33
  55.9343         23
  55.9529         29
  55.9714         33
  55.9900         24
  56.0086         28
  56.0272         31
  56.0457         28
  56.0643         30
  56.0829         16
  56.1015         26
  56.1201         16
  56.1386         28
  56.1572         37
  56.1758         22
  56.1944         28
  56.2129         20
  56.2315         35
  56.2501         28
  56.2687         27
  56.2872         30
  56.3058         25
  56.3244         36
  56.3430         43
  56.3615         35
  56.3801         30
  56.3987         28
  56.4173         29
  56.4358         27
  56.4544         36
  56.4730         28
  56.4916         25
  56.5101         24
  56.5287         28
  56.5473         32
  56.5659         44
  56.5844         43
  56.6030         29
  56.6216         25
  56.6402         24
  56.6587         35
  56.6773         22
  56.6959         28
  56.7145         24
  56.7330         26
  56.7516         34
  56.7702         34
  56.7888         24
  56.8073         27
  56.8259         19
  56.8445         22
  56.8631         19
  56.8817         24
  56.9002         29
  56.9188         22
  56.9374         27
  56.9560         35
  56.9745         27
  56.9931         25
  57.0117         19
  57.0303         28
  57.0488         25
  57.0674         30
  57.0860         29
  57.1046         37
  57.1231         36
  57.1417         21
  57.1603         23
  57.1789         24
  57.1974         32
  57.2160         27
  57.2346         31
  57.2532         38
  57.2717         34
  57.2903         23
  57.3089         25
  57.3275         28
  57.3460         29
  57.3646         32
  57.3832         24
  57.4018         27
  57.4203         29
  57.4389         20
  57.4575         32
  57.4761         23
  57.4946         25
  57.5132         24
  57.5318         26
  57.5504         29
  57.5689         30
  57.5875         31
  57.6061         18
  57.6247         28
  57.6433         26
  57.6618         25
  57.6804         31
  57.6990         39
  57.7176         35
  57.7361         23
  57.7547         18
  57.7733         18
  57.7919         30
  57.8104         33
  57.8290         28
  57.8476         32
  57.8662         23
  57.8847         30
  57.9033         30
  57.9219         30
  57.9405         29
  57.9590         22
  57.9776         31
  57.9962         29
  58.0148         34
  58.0333         25
  58.0519         31
  58.0705         31
  58.0891         34
  58.1076         27
  58.1262         22
  58.1448         23
  58.1634         38
  58.1819         31
  58.2005         34
  58.2191         28
  58.2377         28
  58.2562         26
  58.2748         31
  58.2934         24
  58.3120         24
  58.3305         35
  58.3491         27
  58.3677         32
  58.3863         31
  58.4049         30
  58.4234         30
  58.4420         37
  58.4606         25
  58.4792         25
  58.4977         26
  58.5163         18
  58.5349         21
  58.5535         26
  58.5720         32
  58.5906         27
  58.6092         24
  58.6278         35
  58.6463         14
  58.6649         25
  58.6835         21
  58.7021         29
  58.7206         27
  58.7392         36
  58.7578         26
  58.7764         30
  58.7949         46
  58.8135         23
  58.8321         23
  58.8507         27
  58.8692         25
  58.8878         25
  58.9064         16
  58.9250         26
  58.9435         22
  58.9621         28
  58.9807         32
  58.9993         33
  59.0178         27
  59.0364         35
  59.0550         27
  59.0736         27
  59.0921         31
  59.1107         32
  59.1293         20
  59.1479         28
  59.1664         25
  59.1850         28
  59.2036         29
  59.2222         38
  59.2408         31
  59.2593         24
  59.2779         27
  59.2965         21
  59.3151         26
  59.3336         21
  59.3522         43
  59.3708         25
  59.3894         29
  59.4079         24
  59.4265         25
  59.4451         30
  59.4637         26
  59.4822         34
  59.5008         22
  59.5194         25
  59.5380         15
  59.5565         26
  59.5751         25
  59.5937         22
  59.6123         38
  59.6308         32
  59.6494         30
  59.6680         29
  59.6866         20
  59.7051         32
  59.7237         24
  59.7423         34
  59.7609         29
  59.7794         18
  59.7980         32
  59.8166         22
  59.8352         26
  59.8537         32
  59.8723         30
  59.8909         23
  59.9095         30
  59.9280         25
  59.9466         26
  59.9652         25
  59.9838         27
  60.0024         25
