; (content of file Y:\Sam\Apurva-07-20-2022\puck2\ML_20220720_18_SJD_0_LaB6-1min.raw)
_FILEVERSION = 3
_SAMPLE = ML_20220720_18_SJD_0_LaB6-1mi
_+SAMPLE = 
_SITE = USA
_USER = Administrator
_GONIOMETER_CODE = 20
; Goniometer : D8 theta/2theta, stage : Unknown
_ATTACHMENTS_CODE = 0
_GONIOMETER_RADIUS = 200.5
_FIXED_DIVSLIT = 0.6
_FIXED_SAMPLESLIT = 0
_SOLLER_SLITS = 2
_FIXED_DETSLIT = 9.55
_MONOCHROMATOR = 0
; Incident beam monochromator : None
_SOLLER_SLITS_2 = N
_THIN_FILM = N
_BETA_FILTER = Y
_FIXED_ANTISLIT = 5.89
_ANALYZER_CODE = 0
; Received beam analyzer : None
_DATEMEASURED = "25-Jul-2022 18:19:54"
_WL_UNIT = A
_WL1 = 1.5406
_WL2 = 1.54439
_WL3 = 1.39222
_WLRATIO = 0.5
_ANODE = Cu
_V4_INF_CREATOR = XRDWizard
_V4_INF_CREATOR_VERSION = V2.9.0.22
_V4_INF_WIZARD_VERSION = V2.9.0.22
_V4_INF_WIZARD_ADDINS = V2.9.0.22
_V4_INF_WIZARD_DOCTYPE = XRD
_V4_INF_OSUSER = McQueenLab
_V4_INF_USER = Administrator
_V4_INF_SITE = USA
_V4_INF_SAMPLEID = ML_20220720_18_SJD_0_LaB6-1mi

; Data for range 1
_DRIVE = COUPLED
_STEPTIME = 4.23
_STEPSIZE = 0.0185756
_STEPMODE = C
_START = 5
_THETA = 2.5
_2THETA = 5
_KHI = 0
_PHI = 0
_X = 0
_Y = 0
_Z = 0
_DETECTOR = 5
; Detector type : Unknown
_DETECTORSLIT = unkn
_AUX1 = 0
_AUX2 = 0
_AUX3 = 0
_TIMESTARTED = 15
_TEMP_RATE = -1
_TEMP_DELAY = -1
_KV = 40
_MA = 40
_RANGE_WL = 1.5406
_3DPLANE = 0
_V4_ADDITIONALDETECTOR = 257
_V4_PSD2THETA = 3.4307
_V4_PSDCHANNEL1 = 0
_V4_PSDAPERTURE = 12.68
_V4_PSDTYPE = 5
_V4_PSDFIXED = 0
_V4_COUNTERS_MASK = 4096
_V4_DRIVES_MASK = 0
_V4_ENCODERS_MASK = 0
_2THETACOUNTS = 1
; 2THETA  PSD
   5.0000         89
   5.0186         82
   5.0372        106
   5.0557        108
   5.0743         94
   5.0929         94
   5.1115        131
   5.1300        110
   5.1486         92
   5.1672         85
   5.1858         83
   5.2043         88
   5.2229         70
   5.2415         93
   5.2601         86
   5.2786         89
   5.2972        100
   5.3158         90
   5.3344        103
   5.3529         79
   5.3715         93
   5.3901         72
   5.4087         68
   5.4272         76
   5.4458         75
   5.4644         84
   5.4830         83
   5.5015         72
   5.5201         80
   5.5387         81
   5.5573         89
   5.5758         86
   5.5944         75
   5.6130         63
   5.6316         80
   5.6501         85
   5.6687         89
   5.6873         67
   5.7059         80
   5.7244         84
   5.7430         63
   5.7616         65
   5.7802         73
   5.7988         82
   5.8173         66
   5.8359         76
   5.8545         77
   5.8731         84
   5.8916         67
   5.9102         60
   5.9288         68
   5.9474         87
   5.9659         80
   5.9845         62
   6.0031         70
   6.0217         80
   6.0402         91
   6.0588         76
   6.0774         61
   6.0960         74
   6.1145         72
   6.1331         72
   6.1517         60
   6.1703         65
   6.1888         80
   6.2074         58
   6.2260         77
   6.2446         87
   6.2631         65
   6.2817         81
   6.3003         72
   6.3189         56
   6.3374         74
   6.3560         76
   6.3746         60
   6.3932         57
   6.4117         79
   6.4303         63
   6.4489         85
   6.4675         51
   6.4860         70
   6.5046         67
   6.5232         58
   6.5418         63
   6.5604         65
   6.5789         55
   6.5975         61
   6.6161         65
   6.6347         64
   6.6532         50
   6.6718         75
   6.6904         51
   6.7090         53
   6.7275         58
   6.7461         66
   6.7647         75
   6.7833         58
   6.8018         66
   6.8204         50
   6.8390         52
   6.8576         54
   6.8761         58
   6.8947         70
   6.9133         61
   6.9319         45
   6.9504         69
   6.9690         52
   6.9876         60
   7.0062         61
   7.0247         63
   7.0433         55
   7.0619         63
   7.0805         65
   7.0990         65
   7.1176         67
   7.1362         67
   7.1548         58
   7.1733         48
   7.1919         62
   7.2105         56
   7.2291         55
   7.2476         62
   7.2662         64
   7.2848         67
   7.3034         48
   7.3220         70
   7.3405         54
   7.3591         58
   7.3777         56
   7.3963         62
   7.4148         67
   7.4334         71
   7.4520         59
   7.4706         72
   7.4891         44
   7.5077         63
   7.5263         50
   7.5449         62
   7.5634         57
   7.5820         69
   7.6006         76
   7.6192         63
   7.6377         66
   7.6563         68
   7.6749         71
   7.6935         64
   7.7120         62
   7.7306         59
   7.7492         71
   7.7678         67
   7.7863         60
   7.8049         57
   7.8235         70
   7.8421         69
   7.8606         51
   7.8792         73
   7.8978         70
   7.9164         58
   7.9349         73
   7.9535         72
   7.9721         64
   7.9907         65
   8.0092         60
   8.0278         72
   8.0464         71
   8.0650         54
   8.0835         62
   8.1021         75
   8.1207         57
   8.1393         78
   8.1579         71
   8.1764         64
   8.1950         76
   8.2136         60
   8.2322         53
   8.2507         70
   8.2693         60
   8.2879         84
   8.3065         67
   8.3250         66
   8.3436         70
   8.3622         60
   8.3808         64
   8.3993         59
   8.4179         66
   8.4365         74
   8.4551         75
   8.4736         74
   8.4922         81
   8.5108         78
   8.5294         86
   8.5479         67
   8.5665         67
   8.5851         74
   8.6037         73
   8.6222         82
   8.6408         75
   8.6594         78
   8.6780         75
   8.6965         80
   8.7151         79
   8.7337         84
   8.7523         67
   8.7708         57
   8.7894         71
   8.8080         68
   8.8266         85
   8.8451         66
   8.8637         76
   8.8823         71
   8.9009         77
   8.9195         87
   8.9380         85
   8.9566         77
   8.9752         74
   8.9938         75
   9.0123         71
   9.0309         79
   9.0495         78
   9.0681         78
   9.0866         85
   9.1052         77
   9.1238         71
   9.1424         93
   9.1609         84
   9.1795         75
   9.1981         86
   9.2167         86
   9.2352         72
   9.2538         73
   9.2724         77
   9.2910         77
   9.3095         87
   9.3281         70
   9.3467        101
   9.3653         84
   9.3838         85
   9.4024         62
   9.4210         82
   9.4396         87
   9.4581         91
   9.4767         79
   9.4953         76
   9.5139         62
   9.5324         75
   9.5510         66
   9.5696         83
   9.5882         80
   9.6067         89
   9.6253         72
   9.6439         76
   9.6625         66
   9.6811         86
   9.6996         62
   9.7182         87
   9.7368         75
   9.7554         71
   9.7739         87
   9.7925         87
   9.8111         85
   9.8297         74
   9.8482         87
   9.8668         92
   9.8854         87
   9.9040         80
   9.9225         81
   9.9411         94
   9.9597         87
   9.9783         92
   9.9968         92
  10.0154         67
  10.0340         95
  10.0526         97
  10.0711         80
  10.0897         75
  10.1083         91
  10.1269        109
  10.1454         82
  10.1640         85
  10.1826         96
  10.2012         68
  10.2197         97
  10.2383         98
  10.2569         86
  10.2755         85
  10.2940         76
  10.3126         93
  10.3312         92
  10.3498         92
  10.3683         89
  10.3869        105
  10.4055         90
  10.4241         81
  10.4427         84
  10.4612         76
  10.4798         90
  10.4984         93
  10.5170         77
  10.5355         86
  10.5541         82
  10.5727         82
  10.5913         96
  10.6098         95
  10.6284         94
  10.6470         85
  10.6656        105
  10.6841         79
  10.7027         82
  10.7213         86
  10.7399        113
  10.7584         98
  10.7770         98
  10.7956         79
  10.8142         82
  10.8327         98
  10.8513         95
  10.8699         89
  10.8885         72
  10.9070         62
  10.9256         73
  10.9442         83
  10.9628         91
  10.9813         86
  10.9999         95
  11.0185         85
  11.0371         85
  11.0556         79
  11.0742         78
  11.0928         91
  11.1114         93
  11.1299         81
  11.1485         83
  11.1671         87
  11.1857         80
  11.2043         85
  11.2228         75
  11.2414        108
  11.2600         90
  11.2786         81
  11.2971         87
  11.3157         87
  11.3343         94
  11.3529         82
  11.3714        101
  11.3900         98
  11.4086         83
  11.4272         86
  11.4457         73
  11.4643         89
  11.4829         80
  11.5015         87
  11.5200         96
  11.5386         96
  11.5572         81
  11.5758         85
  11.5943         94
  11.6129         77
  11.6315         77
  11.6501         86
  11.6686         79
  11.6872        103
  11.7058         78
  11.7244         78
  11.7429         87
  11.7615         88
  11.7801         76
  11.7987         81
  11.8172         69
  11.8358         83
  11.8544        100
  11.8730         92
  11.8915         99
  11.9101         93
  11.9287         85
  11.9473         79
  11.9659         63
  11.9844         72
  12.0030        107
  12.0216         91
  12.0402         92
  12.0587         81
  12.0773         90
  12.0959         83
  12.1145         93
  12.1330         74
  12.1516         74
  12.1702         92
  12.1888         93
  12.2073         61
  12.2259         84
  12.2445         80
  12.2631         76
  12.2816         86
  12.3002         88
  12.3188        100
  12.3374         85
  12.3559         96
  12.3745         81
  12.3931         84
  12.4117         79
  12.4302         67
  12.4488         87
  12.4674         82
  12.4860         71
  12.5045         75
  12.5231         90
  12.5417         62
  12.5603         75
  12.5788         82
  12.5974         67
  12.6160         84
  12.6346         76
  12.6531         89
  12.6717         74
  12.6903        103
  12.7089         75
  12.7274         76
  12.7460         78
  12.7646         66
  12.7832         70
  12.8018         88
  12.8203         75
  12.8389         87
  12.8575         82
  12.8761         84
  12.8946         79
  12.9132         70
  12.9318         73
  12.9504         68
  12.9689         69
  12.9875         70
  13.0061         81
  13.0247         79
  13.0432         77
  13.0618         82
  13.0804         67
  13.0990         75
  13.1175         65
  13.1361         74
  13.1547         74
  13.1733         61
  13.1918         78
  13.2104         85
  13.2290         64
  13.2476         70
  13.2661         77
  13.2847         66
  13.3033         74
  13.3219         67
  13.3404         75
  13.3590         70
  13.3776         77
  13.3962         79
  13.4147         71
  13.4333         70
  13.4519         97
  13.4705         69
  13.4890         73
  13.5076         96
  13.5262         90
  13.5448         77
  13.5634         72
  13.5819         77
  13.6005         86
  13.6191         63
  13.6377         68
  13.6562         77
  13.6748         70
  13.6934         60
  13.7120         84
  13.7305         67
  13.7491         74
  13.7677         80
  13.7863         61
  13.8048         77
  13.8234         70
  13.8420         76
  13.8606         64
  13.8791         72
  13.8977         74
  13.9163         67
  13.9349         66
  13.9534         73
  13.9720         60
  13.9906         75
  14.0092         47
  14.0277         66
  14.0463         76
  14.0649         76
  14.0835         60
  14.1020         79
  14.1206         52
  14.1392         70
  14.1578         53
  14.1763         63
  14.1949         63
  14.2135         69
  14.2321         60
  14.2506         68
  14.2692         58
  14.2878         74
  14.3064         72
  14.3250         70
  14.3435         67
  14.3621         65
  14.3807         58
  14.3993         59
  14.4178         53
  14.4364         85
  14.4550         65
  14.4736         67
  14.4921         56
  14.5107         62
  14.5293         75
  14.5479         70
  14.5664         72
  14.5850         61
  14.6036         49
  14.6222         57
  14.6407         63
  14.6593         53
  14.6779         56
  14.6965         73
  14.7150         72
  14.7336         67
  14.7522         68
  14.7708         53
  14.7893         52
  14.8079         61
  14.8265         55
  14.8451         54
  14.8636         53
  14.8822         67
  14.9008         52
  14.9194         55
  14.9379         66
  14.9565         68
  14.9751         57
  14.9937         49
  15.0122         60
  15.0308         64
  15.0494         62
  15.0680         60
  15.0866         69
  15.1051         64
  15.1237         58
  15.1423         48
  15.1609         59
  15.1794         58
  15.1980         55
  15.2166         64
  15.2352         66
  15.2537         62
  15.2723         75
  15.2909         65
  15.3095         62
  15.3280         60
  15.3466         61
  15.3652         52
  15.3838         60
  15.4023         65
  15.4209         60
  15.4395         62
  15.4581         55
  15.4766         69
  15.4952         62
  15.5138         68
  15.5324         48
  15.5509         55
  15.5695         69
  15.5881         53
  15.6067         65
  15.6252         64
  15.6438         55
  15.6624         57
  15.6810         64
  15.6995         45
  15.7181         54
  15.7367         59
  15.7553         47
  15.7738         72
  15.7924         50
  15.8110         62
  15.8296         55
  15.8482         73
  15.8667         64
  15.8853         42
  15.9039         49
  15.9225         56
  15.9410         64
  15.9596         55
  15.9782         62
  15.9968         61
  16.0153         59
  16.0339         62
  16.0525         63
  16.0711         47
  16.0896         59
  16.1082         75
  16.1268         64
  16.1454         69
  16.1639         60
  16.1825         52
  16.2011         51
  16.2197         62
  16.2382         62
  16.2568         67
  16.2754         53
  16.2940         56
  16.3125         65
  16.3311         64
  16.3497         67
  16.3683         57
  16.3868         46
  16.4054         58
  16.4240         74
  16.4426         69
  16.4611         52
  16.4797         67
  16.4983         54
  16.5169         64
  16.5354         54
  16.5540         47
  16.5726         49
  16.5912         60
  16.6097         53
  16.6283         47
  16.6469         59
  16.6655         69
  16.6841         75
  16.7026         44
  16.7212         83
  16.7398         69
  16.7584         61
  16.7769         72
  16.7955         61
  16.8141         50
  16.8327         61
  16.8512         59
  16.8698         38
  16.8884         62
  16.9070         77
  16.9255         68
  16.9441         52
  16.9627         54
  16.9813         74
  16.9998         52
  17.0184         51
  17.0370         60
  17.0556         59
  17.0741         56
  17.0927         51
  17.1113         61
  17.1299         58
  17.1484         55
  17.1670         53
  17.1856         65
  17.2042         56
  17.2227         50
  17.2413         55
  17.2599         51
  17.2785         65
  17.2970         51
  17.3156         53
  17.3342         44
  17.3528         68
  17.3713         60
  17.3899         70
  17.4085         64
  17.4271         59
  17.4457         60
  17.4642         55
  17.4828         67
  17.5014         60
  17.5200         51
  17.5385         57
  17.5571         56
  17.5757         46
  17.5943         68
  17.6128         64
  17.6314         73
  17.6500         66
  17.6686         53
  17.6871         57
  17.7057         65
  17.7243         76
  17.7429         52
  17.7614         65
  17.7800         54
  17.7986         48
  17.8172         64
  17.8357         63
  17.8543         54
  17.8729         76
  17.8915         55
  17.9100         69
  17.9286         53
  17.9472         79
  17.9658         71
  17.9843         68
  18.0029         60
  18.0215         47
  18.0401         59
  18.0586         56
  18.0772         72
  18.0958         59
  18.1144         61
  18.1329         65
  18.1515         48
  18.1701         48
  18.1887         52
  18.2073         63
  18.2258         70
  18.2444         59
  18.2630         73
  18.2816         67
  18.3001         66
  18.3187         64
  18.3373         65
  18.3559         61
  18.3744         53
  18.3930         57
  18.4116         58
  18.4302         67
  18.4487         57
  18.4673         59
  18.4859         73
  18.5045         58
  18.5230         43
  18.5416         64
  18.5602         60
  18.5788         59
  18.5973         56
  18.6159         65
  18.6345         48
  18.6531         60
  18.6716         80
  18.6902         63
  18.7088         57
  18.7274         61
  18.7459         66
  18.7645         59
  18.7831         71
  18.8017         57
  18.8202         54
  18.8388         56
  18.8574         63
  18.8760         67
  18.8945         61
  18.9131         53
  18.9317         79
  18.9503         57
  18.9689         61
  18.9874         55
  19.0060         65
  19.0246         61
  19.0432         75
  19.0617         72
  19.0803         47
  19.0989         74
  19.1175         70
  19.1360         60
  19.1546         61
  19.1732         69
  19.1918         61
  19.2103         58
  19.2289         59
  19.2475         64
  19.2661         71
  19.2846         65
  19.3032         59
  19.3218         73
  19.3404         67
  19.3589         74
  19.3775         60
  19.3961         48
  19.4147         61
  19.4332         63
  19.4518         66
  19.4704         64
  19.4890         63
  19.5075         46
  19.5261         69
  19.5447         65
  19.5633         75
  19.5818         69
  19.6004         68
  19.6190         66
  19.6376         81
  19.6561         55
  19.6747         73
  19.6933         58
  19.7119         57
  19.7305         58
  19.7490         76
  19.7676         67
  19.7862         71
  19.8048         90
  19.8233         54
  19.8419         79
  19.8605         59
  19.8791         71
  19.8976         74
  19.9162         57
  19.9348         61
  19.9534         57
  19.9719         65
  19.9905         63
  20.0091         70
  20.0277         52
  20.0462         66
  20.0648         52
  20.0834         80
  20.1020         72
  20.1205         60
  20.1391         65
  20.1577         58
  20.1763         77
  20.1948         77
  20.2134         60
  20.2320         77
  20.2506         55
  20.2691         55
  20.2877         67
  20.3063         61
  20.3249         73
  20.3434         71
  20.3620         65
  20.3806         53
  20.3992         65
  20.4177         71
  20.4363         59
  20.4549         67
  20.4735         61
  20.4921         69
  20.5106         65
  20.5292         75
  20.5478         72
  20.5664         71
  20.5849         79
  20.6035         63
  20.6221         83
  20.6407         69
  20.6592         62
  20.6778         65
  20.6964         63
  20.7150         71
  20.7335         76
  20.7521         77
  20.7707         55
  20.7893         77
  20.8078         75
  20.8264         60
  20.8450         68
  20.8636         66
  20.8821         79
  20.9007         78
  20.9193         61
  20.9379         73
  20.9564         69
  20.9750         88
  20.9936         79
  21.0122         67
  21.0307         69
  21.0493         81
  21.0679         83
  21.0865         64
  21.1050         77
  21.1236         76
  21.1422         85
  21.1608         95
  21.1793         91
  21.1979        119
  21.2165        108
  21.2351        139
  21.2537        125
  21.2722         92
  21.2908         93
  21.3094        133
  21.3280        108
  21.3465        195
  21.3651        222
  21.3837        178
  21.4023        148
  21.4208        138
  21.4394         80
  21.4580         83
  21.4766         78
  21.4951         76
  21.5137         64
  21.5323         68
  21.5509         65
  21.5694         81
  21.5880         73
  21.6066         59
  21.6252         63
  21.6437         68
  21.6623         67
  21.6809         64
  21.6995         65
  21.7180         61
  21.7366         83
  21.7552         78
  21.7738         58
  21.7923         65
  21.8109         92
  21.8295         51
  21.8481         76
  21.8666         82
  21.8852         68
  21.9038         64
  21.9224         76
  21.9409         73
  21.9595         75
  21.9781         68
  21.9967         71
  22.0152         73
  22.0338         65
  22.0524         59
  22.0710         78
  22.0896         83
  22.1081         65
  22.1267         82
  22.1453         74
  22.1639         66
  22.1824         74
  22.2010         79
  22.2196         51
  22.2382         76
  22.2567         72
  22.2753         55
  22.2939         67
  22.3125         59
  22.3310         67
  22.3496         70
  22.3682         69
  22.3868         76
  22.4053         72
  22.4239         71
  22.4425         64
  22.4611         80
  22.4796         74
  22.4982         79
  22.5168         71
  22.5354         83
  22.5539         69
  22.5725         60
  22.5911         78
  22.6097         66
  22.6282         73
  22.6468         63
  22.6654         68
  22.6840         80
  22.7025         84
  22.7211         82
  22.7397         68
  22.7583         67
  22.7768         70
  22.7954         64
  22.8140         80
  22.8326         73
  22.8512         76
  22.8697         63
  22.8883         73
  22.9069         74
  22.9255         75
  22.9440         65
  22.9626         77
  22.9812         72
  22.9998         76
  23.0183         76
  23.0369         76
  23.0555         61
  23.0741         73
  23.0926        100
  23.1112         72
  23.1298         73
  23.1484         77
  23.1669         68
  23.1855         68
  23.2041         81
  23.2227         63
  23.2412         63
  23.2598         80
  23.2784         71
  23.2970         77
  23.3155         74
  23.3341         80
  23.3527         83
  23.3713         66
  23.3898         88
  23.4084         72
  23.4270         79
  23.4456         66
  23.4641         82
  23.4827         67
  23.5013         72
  23.5199         56
  23.5384         81
  23.5570         67
  23.5756         77
  23.5942         69
  23.6128         55
  23.6313         71
  23.6499         55
  23.6685         69
  23.6871         73
  23.7056         70
  23.7242         59
  23.7428         70
  23.7614         82
  23.7799         76
  23.7985         75
  23.8171         76
  23.8357         70
  23.8542         77
  23.8728         58
  23.8914         60
  23.9100         60
  23.9285         73
  23.9471         97
  23.9657         58
  23.9843         79
  24.0028         75
  24.0214         69
  24.0400         80
  24.0586         79
  24.0771         65
  24.0957         68
  24.1143         93
  24.1329         77
  24.1514         77
  24.1700         80
  24.1886         76
  24.2072         86
  24.2257         87
  24.2443         71
  24.2629        105
  24.2815         95
  24.3000         92
  24.3186         94
  24.3372         80
  24.3558         82
  24.3744         81
  24.3929         70
  24.4115         79
  24.4301         89
  24.4487         93
  24.4672         74
  24.4858         69
  24.5044         82
  24.5230         60
  24.5415         75
  24.5601         72
  24.5787         83
  24.5973         73
  24.6158         81
  24.6344         72
  24.6530         78
  24.6716         75
  24.6901         64
  24.7087         87
  24.7273         84
  24.7459         74
  24.7644         68
  24.7830         64
  24.8016         69
  24.8202         62
  24.8387         66
  24.8573         73
  24.8759         73
  24.8945         83
  24.9130         72
  24.9316         80
  24.9502         67
  24.9688         90
  24.9873         89
  25.0059         95
  25.0245         69
  25.0431         74
  25.0616         73
  25.0802         75
  25.0988         64
  25.1174         70
  25.1360         78
  25.1545         67
  25.1731         71
  25.1917         68
  25.2103         58
  25.2288         70
  25.2474         83
  25.2660         82
  25.2846         81
  25.3031         81
  25.3217         77
  25.3403         70
  25.3589         65
  25.3774         79
  25.3960         76
  25.4146         70
  25.4332         51
  25.4517         83
  25.4703         92
  25.4889         83
  25.5075         81
  25.5260         77
  25.5446         71
  25.5632         66
  25.5818         72
  25.6003         75
  25.6189         82
  25.6375         62
  25.6561         75
  25.6746         80
  25.6932         83
  25.7118         70
  25.7304         90
  25.7489         77
  25.7675         70
  25.7861         61
  25.8047         68
  25.8232         71
  25.8418         68
  25.8604         67
  25.8790         61
  25.8976         73
  25.9161         64
  25.9347         60
  25.9533         69
  25.9719         77
  25.9904         60
  26.0090         58
  26.0276         63
  26.0462         54
  26.0647         79
  26.0833         57
  26.1019         58
  26.1205         81
  26.1390         83
  26.1576         67
  26.1762         76
  26.1948         82
  26.2133         84
  26.2319         69
  26.2505         63
  26.2691         85
  26.2876         71
  26.3062         58
  26.3248         73
  26.3434         78
  26.3619         76
  26.3805         77
  26.3991         63
  26.4177         67
  26.4362         75
  26.4548         68
  26.4734         67
  26.4920         63
  26.5105         59
  26.5291         71
  26.5477         79
  26.5663         75
  26.5848         69
  26.6034         64
  26.6220         54
  26.6406         69
  26.6591         71
  26.6777         73
  26.6963         70
  26.7149         52
  26.7335         73
  26.7520         65
  26.7706         74
  26.7892         56
  26.8078         75
  26.8263         64
  26.8449         68
  26.8635         78
  26.8821         62
  26.9006         80
  26.9192         72
  26.9378         75
  26.9564         62
  26.9749         85
  26.9935         74
  27.0121         48
  27.0307         70
  27.0492         61
  27.0678         76
  27.0864         75
  27.1050         60
  27.1235         72
  27.1421         71
  27.1607         68
  27.1793         71
  27.1978         87
  27.2164         83
  27.2350         86
  27.2536         91
  27.2721         65
  27.2907         68
  27.3093         76
  27.3279         67
  27.3464         63
  27.3650         69
  27.3836         70
  27.4022         71
  27.4207         65
  27.4393         53
  27.4579         75
  27.4765         69
  27.4951         58
  27.5136         69
  27.5322         67
  27.5508         59
  27.5694         57
  27.5879         62
  27.6065         83
  27.6251         73
  27.6437         66
  27.6622         53
  27.6808         60
  27.6994         62
  27.7180         56
  27.7365         61
  27.7551         54
  27.7737         74
  27.7923         76
  27.8108         73
  27.8294         79
  27.8480         83
  27.8666         67
  27.8851         52
  27.9037         78
  27.9223         66
  27.9409         57
  27.9594         61
  27.9780         64
  27.9966         68
  28.0152         65
  28.0337         72
  28.0523         64
  28.0709         60
  28.0895         44
  28.1080         72
  28.1266         48
  28.1452         52
  28.1638         50
  28.1823         64
  28.2009         67
  28.2195         48
  28.2381         59
  28.2567         67
  28.2752         72
  28.2938         63
  28.3124         49
  28.3310         63
  28.3495         61
  28.3681         51
  28.3867         53
  28.4053         50
  28.4238         61
  28.4424         59
  28.4610         52
  28.4796         66
  28.4981         53
  28.5167         56
  28.5353         73
  28.5539         71
  28.5724         71
  28.5910         54
  28.6096         66
  28.6282         73
  28.6467         62
  28.6653         57
  28.6839         68
  28.7025         45
  28.7210         74
  28.7396         65
  28.7582         46
  28.7768         78
  28.7953         76
  28.8139         56
  28.8325         72
  28.8511         63
  28.8696         78
  28.8882         51
  28.9068         55
  28.9254         60
  28.9439         65
  28.9625         54
  28.9811         45
  28.9997         62
  29.0183         55
  29.0368         76
  29.0554         72
  29.0740         65
  29.0926         60
  29.1111         59
  29.1297         61
  29.1483         65
  29.1669         58
  29.1854         58
  29.2040         57
  29.2226         42
  29.2412         51
  29.2597         60
  29.2783         55
  29.2969         67
  29.3155         50
  29.3340         61
  29.3526         45
  29.3712         49
  29.3898         58
  29.4083         52
  29.4269         56
  29.4455         58
  29.4641         69
  29.4826         56
  29.5012         59
  29.5198         71
  29.5384         57
  29.5569         72
  29.5755         56
  29.5941         45
  29.6127         55
  29.6312         46
  29.6498         69
  29.6684         52
  29.6870         47
  29.7055         64
  29.7241         76
  29.7427         44
  29.7613         63
  29.7799         61
  29.7984         56
  29.8170         66
  29.8356         52
  29.8542         74
  29.8727         42
  29.8913         51
  29.9099         61
  29.9285         66
  29.9470         50
  29.9656         57
  29.9842         48
  30.0028         64
  30.0213         51
  30.0399         61
  30.0585         65
  30.0771         58
  30.0956         50
  30.1142         56
  30.1328         54
  30.1514         50
  30.1699         40
  30.1885         61
  30.2071         46
  30.2257         58
  30.2442         53
  30.2628         58
  30.2814         60
  30.3000         67
  30.3185         77
  30.3371         81
  30.3557         95
  30.3743        121
  30.3928        135
  30.4114        102
  30.4300         72
  30.4486         93
  30.4671         92
  30.4857         87
  30.5043         67
  30.5229         62
  30.5415         69
  30.5600         63
  30.5786         54
  30.5972         60
  30.6158         71
  30.6343         58
  30.6529         44
  30.6715         56
  30.6901         63
  30.7086         49
  30.7272         64
  30.7458         48
  30.7644         56
  30.7829         51
  30.8015         59
  30.8201         53
  30.8387         55
  30.8572         62
  30.8758         62
  30.8944         55
  30.9130         58
  30.9315         52
  30.9501         49
  30.9687         55
  30.9873         59
  31.0058         52
  31.0244         62
  31.0430         54
  31.0616         42
  31.0801         55
  31.0987         45
  31.1173         44
  31.1359         64
  31.1544         49
  31.1730         60
  31.1916         53
  31.2102         49
  31.2287         36
  31.2473         46
  31.2659         53
  31.2845         45
  31.3030         55
  31.3216         53
  31.3402         41
  31.3588         42
  31.3774         51
  31.3959         47
  31.4145         51
  31.4331         60
  31.4517         57
  31.4702         51
  31.4888         55
  31.5074         51
  31.5260         56
  31.5445         66
  31.5631         34
  31.5817         38
  31.6003         52
  31.6188         58
  31.6374         47
  31.6560         67
  31.6746         45
  31.6931         63
  31.7117         57
  31.7303         46
  31.7489         48
  31.7674         37
  31.7860         49
  31.8046         57
  31.8232         41
  31.8417         45
  31.8603         61
  31.8789         47
  31.8975         39
  31.9160         60
  31.9346         43
  31.9532         50
  31.9718         40
  31.9903         48
  32.0089         54
  32.0275         48
  32.0461         33
  32.0646         55
  32.0832         51
  32.1018         38
  32.1204         54
  32.1390         68
  32.1575         46
  32.1761         42
  32.1947         49
  32.2133         41
  32.2318         51
  32.2504         43
  32.2690         52
  32.2876         52
  32.3061         61
  32.3247         54
  32.3433         48
  32.3619         49
  32.3804         42
  32.3990         45
  32.4176         44
  32.4362         43
  32.4547         49
  32.4733         59
  32.4919         50
  32.5105         53
  32.5290         62
  32.5476         52
  32.5662         52
  32.5848         46
  32.6033         49
  32.6219         57
  32.6405         52
  32.6591         42
  32.6776         42
  32.6962         47
  32.7148         42
  32.7334         53
  32.7519         56
  32.7705         63
  32.7891         51
  32.8077         37
  32.8262         53
  32.8448         62
  32.8634         37
  32.8820         46
  32.9006         48
  32.9191         47
  32.9377         51
  32.9563         34
  32.9749         39
  32.9934         50
  33.0120         53
  33.0306         44
  33.0492         47
  33.0677         44
  33.0863         41
  33.1049         39
  33.1235         45
  33.1420         41
  33.1606         41
  33.1792         43
  33.1978         51
  33.2163         47
  33.2349         44
  33.2535         41
  33.2721         38
  33.2906         44
  33.3092         40
  33.3278         51
  33.3464         43
  33.3649         52
  33.3835         48
  33.4021         39
  33.4207         52
  33.4392         40
  33.4578         44
  33.4764         45
  33.4950         33
  33.5135         39
  33.5321         51
  33.5507         27
  33.5693         47
  33.5878         41
  33.6064         43
  33.6250         36
  33.6436         33
  33.6622         51
  33.6807         43
  33.6993         42
  33.7179         38
  33.7365         45
  33.7550         33
  33.7736         55
  33.7922         43
  33.8108         39
  33.8293         48
  33.8479         39
  33.8665         48
  33.8851         46
  33.9036         44
  33.9222         52
  33.9408         32
  33.9594         41
  33.9779         38
  33.9965         36
  34.0151         48
  34.0337         58
  34.0522         41
  34.0708         39
  34.0894         29
  34.1080         37
  34.1265         53
  34.1451         47
  34.1637         46
  34.1823         40
  34.2008         48
  34.2194         37
  34.2380         42
  34.2566         26
  34.2751         41
  34.2937         33
  34.3123         58
  34.3309         40
  34.3494         48
  34.3680         46
  34.3866         36
  34.4052         47
  34.4238         37
  34.4423         44
  34.4609         40
  34.4795         44
  34.4981         30
  34.5166         32
  34.5352         28
  34.5538         46
  34.5724         52
  34.5909         38
  34.6095         62
  34.6281         41
  34.6467         33
  34.6652         43
  34.6838         48
  34.7024         41
  34.7210         61
  34.7395         52
  34.7581         55
  34.7767         59
  34.7953         48
  34.8138         61
  34.8324         56
  34.8510         48
  34.8696         48
  34.8881         52
  34.9067         42
  34.9253         41
  34.9439         41
  34.9624         55
  34.9810         46
  34.9996         40
  35.0182         42
  35.0367         49
  35.0553         37
  35.0739         35
  35.0925         31
  35.1110         37
  35.1296         55
  35.1482         34
  35.1668         41
  35.1854         32
  35.2039         28
  35.2225         45
  35.2411         43
  35.2597         36
  35.2782         31
  35.2968         46
  35.3154         36
  35.3340         40
  35.3525         36
  35.3711         31
  35.3897         39
  35.4083         44
  35.4268         40
  35.4454         37
  35.4640         41
  35.4826         46
  35.5011         44
  35.5197         41
  35.5383         30
  35.5569         34
  35.5754         44
  35.5940         43
  35.6126         47
  35.6312         34
  35.6497         51
  35.6683         52
  35.6869         27
  35.7055         48
  35.7240         32
  35.7426         33
  35.7612         28
  35.7798         60
  35.7983         41
  35.8169         31
  35.8355         39
  35.8541         38
  35.8726         26
  35.8912         50
  35.9098         35
  35.9284         36
  35.9469         43
  35.9655         26
  35.9841         35
  36.0027         38
  36.0213         37
  36.0398         32
  36.0584         43
  36.0770         36
  36.0956         43
  36.1141         33
  36.1327         30
  36.1513         37
  36.1699         20
  36.1884         42
  36.2070         47
  36.2256         28
  36.2442         32
  36.2627         46
  36.2813         33
  36.2999         32
  36.3185         33
  36.3370         25
  36.3556         28
  36.3742         37
  36.3928         35
  36.4113         36
  36.4299         36
  36.4485         31
  36.4671         32
  36.4856         37
  36.5042         33
  36.5228         33
  36.5414         32
  36.5599         32
  36.5785         32
  36.5971         33
  36.6157         40
  36.6342         43
  36.6528         30
  36.6714         45
  36.6900         33
  36.7085         36
  36.7271         39
  36.7457         45
  36.7643         28
  36.7829         31
  36.8014         32
  36.8200         36
  36.8386         42
  36.8572         27
  36.8757         42
  36.8943         25
  36.9129         39
  36.9315         31
  36.9500         27
  36.9686         27
  36.9872         33
  37.0058         32
  37.0243         29
  37.0429         30
  37.0615         30
  37.0801         30
  37.0986         33
  37.1172         38
  37.1358         29
  37.1544         31
  37.1729         40
  37.1915         31
  37.2101         35
  37.2287         34
  37.2472         36
  37.2658         36
  37.2844         36
  37.3030         38
  37.3215         49
  37.3401         38
  37.3587         39
  37.3773         51
  37.3958         46
  37.4144         50
  37.4330         54
  37.4516         57
  37.4701         54
  37.4887         54
  37.5073         52
  37.5259         56
  37.5445         59
  37.5630         38
  37.5816         38
  37.6002         31
  37.6188         29
  37.6373         35
  37.6559         39
  37.6745         38
  37.6931         26
  37.7116         37
  37.7302         31
  37.7488         30
  37.7674         30
  37.7859         44
  37.8045         39
  37.8231         28
  37.8417         27
  37.8602         54
  37.8788         33
  37.8974         32
  37.9160         33
  37.9345         38
  37.9531         22
  37.9717         31
  37.9903         32
  38.0088         28
  38.0274         32
  38.0460         23
  38.0646         41
  38.0831         19
  38.1017         31
  38.1203         40
  38.1389         33
  38.1574         37
  38.1760         29
  38.1946         32
  38.2132         44
  38.2317         34
  38.2503         27
  38.2689         31
  38.2875         28
  38.3061         27
  38.3246         29
  38.3432         24
  38.3618         31
  38.3804         24
  38.3989         31
  38.4175         37
  38.4361         34
  38.4547         31
  38.4732         27
  38.4918         23
  38.5104         29
  38.5290         34
  38.5475         26
  38.5661         19
  38.5847         28
  38.6033         34
  38.6218         44
  38.6404         40
  38.6590         38
  38.6776         28
  38.6961         28
  38.7147         36
  38.7333         31
  38.7519         26
  38.7704         28
  38.7890         30
  38.8076         26
  38.8262         29
  38.8447         35
  38.8633         36
  38.8819         24
  38.9005         38
  38.9190         34
  38.9376         27
  38.9562         36
  38.9748         40
  38.9933         40
  39.0119         39
  39.0305         23
  39.0491         32
  39.0677         31
  39.0862         27
  39.1048         18
  39.1234         26
  39.1420         29
  39.1605         30
  39.1791         33
  39.1977         35
  39.2163         26
  39.2348         26
  39.2534         36
  39.2720         22
  39.2906         26
  39.3091         20
  39.3277         31
  39.3463         43
  39.3649         24
  39.3834         31
  39.4020         21
  39.4206         28
  39.4392         22
  39.4577         33
  39.4763         23
  39.4949         31
  39.5135         27
  39.5320         28
  39.5506         41
  39.5692         23
  39.5878         30
  39.6063         41
  39.6249         25
  39.6435         27
  39.6621         27
  39.6806         24
  39.6992         23
  39.7178         23
  39.7364         22
  39.7549         28
  39.7735         29
  39.7921         32
  39.8107         29
  39.8293         30
  39.8478         30
  39.8664         13
  39.8850         29
  39.9036         26
  39.9221         32
  39.9407         28
  39.9593         31
  39.9779         32
  39.9964         31
  40.0150         32
  40.0336         36
  40.0522         27
  40.0707         31
  40.0893         26
  40.1079         27
  40.1265         31
  40.1450         29
  40.1636         25
  40.1822         28
  40.2008         40
  40.2193         30
  40.2379         28
  40.2565         23
  40.2751         28
  40.2936         41
  40.3122         32
  40.3308         32
  40.3494         27
  40.3679         21
  40.3865         35
  40.4051         31
  40.4237         26
  40.4422         24
  40.4608         36
  40.4794         36
  40.4980         41
  40.5165         26
  40.5351         30
  40.5537         29
  40.5723         34
  40.5908         36
  40.6094         25
  40.6280         27
  40.6466         24
  40.6652         25
  40.6837         28
  40.7023         24
  40.7209         30
  40.7395         24
  40.7580         31
  40.7766         23
  40.7952         26
  40.8138         21
  40.8323         33
  40.8509         28
  40.8695         22
  40.8881         19
  40.9066         24
  40.9252         21
  40.9438         32
  40.9624         32
  40.9809         38
  40.9995         24
  41.0181         29
  41.0367         43
  41.0552         37
  41.0738         21
  41.0924         30
  41.1110         24
  41.1295         22
  41.1481         34
  41.1667         23
  41.1853         33
  41.2038         22
  41.2224         32
  41.2410         29
  41.2596         30
  41.2781         27
  41.2967         31
  41.3153         30
  41.3339         17
  41.3524         38
  41.3710         19
  41.3896         22
  41.4082         25
  41.4268         22
  41.4453         22
  41.4639         29
  41.4825         29
  41.5011         19
  41.5196         39
  41.5382         34
  41.5568         28
  41.5754         22
  41.5939         24
  41.6125         15
  41.6311         14
  41.6497         23
  41.6682         30
  41.6868         26
  41.7054         31
  41.7240         27
  41.7425         25
  41.7611         28
  41.7797         28
  41.7983         18
  41.8168         17
  41.8354         33
  41.8540         22
  41.8726         35
  41.8911         15
  41.9097         33
  41.9283         25
  41.9469         25
  41.9654         24
  41.9840         33
  42.0026         24
  42.0212         36
  42.0397         33
  42.0583         30
  42.0769         26
  42.0955         32
  42.1140         34
  42.1326         29
  42.1512         34
  42.1698         22
  42.1884         27
  42.2069         18
  42.2255         30
  42.2441         37
  42.2627         33
  42.2812         29
  42.2998         28
  42.3184         28
  42.3370         28
  42.3555         26
  42.3741         24
  42.3927         30
  42.4113         33
  42.4298         36
  42.4484         26
  42.4670         29
  42.4856         25
  42.5041         27
  42.5227         21
  42.5413         27
  42.5599         32
  42.5784         24
  42.5970         22
  42.6156         19
  42.6342         29
  42.6527         29
  42.6713         24
  42.6899         24
  42.7085         24
  42.7270         20
  42.7456         30
  42.7642         34
  42.7828         30
  42.8013         25
  42.8199         30
  42.8385         32
  42.8571         23
  42.8756         19
  42.8942         24
  42.9128         27
  42.9314         18
  42.9500         21
  42.9685         29
  42.9871         25
  43.0057         25
  43.0243         34
  43.0428         34
  43.0614         24
  43.0800         32
  43.0986         33
  43.1171         26
  43.1357         30
  43.1543         33
  43.1729         36
  43.1914         28
  43.2100         31
  43.2286         37
  43.2472         27
  43.2657         34
  43.2843         39
  43.3029         32
  43.3215         31
  43.3400         27
  43.3586         33
  43.3772         31
  43.3958         26
  43.4143         33
  43.4329         30
  43.4515         34
  43.4701         39
  43.4886         47
  43.5072         54
  43.5258         51
  43.5444         46
  43.5629         30
  43.5815         36
  43.6001         22
  43.6187         43
  43.6372         24
  43.6558         38
  43.6744         34
  43.6930         31
  43.7116         27
  43.7301         39
  43.7487         30
  43.7673         19
  43.7859         24
  43.8044         30
  43.8230         26
  43.8416         24
  43.8602         26
  43.8787         23
  43.8973         35
  43.9159         26
  43.9345         23
  43.9530         20
  43.9716         20
  43.9902         23
  44.0088         28
  44.0273         30
  44.0459         28
  44.0645         23
  44.0831         23
  44.1016         32
  44.1202         23
  44.1388         25
  44.1574         26
  44.1759         28
  44.1945         17
  44.2131         27
  44.2317         29
  44.2502         25
  44.2688         39
  44.2874         27
  44.3060         35
  44.3245         21
  44.3431         35
  44.3617         35
  44.3803         24
  44.3988         24
  44.4174         32
  44.4360         23
  44.4546         26
  44.4732         31
  44.4917         33
  44.5103         28
  44.5289         23
  44.5475         31
  44.5660         23
  44.5846         34
  44.6032         28
  44.6218         20
  44.6403         30
  44.6589         28
  44.6775         24
  44.6961         34
  44.7146         42
  44.7332         23
  44.7518         25
  44.7704         35
  44.7889         22
  44.8075         26
  44.8261         33
  44.8447         29
  44.8632         36
  44.8818         40
  44.9004         31
  44.9190         25
  44.9375         27
  44.9561         26
  44.9747         24
  44.9933         31
  45.0118         23
  45.0304         18
  45.0490         25
  45.0676         17
  45.0861         36
  45.1047         20
  45.1233         22
  45.1419         30
  45.1604         25
  45.1790         23
  45.1976         32
  45.2162         33
  45.2347         25
  45.2533         31
  45.2719         20
  45.2905         25
  45.3091         21
  45.3276         20
  45.3462         31
  45.3648         25
  45.3834         24
  45.4019         26
  45.4205         25
  45.4391         25
  45.4577         26
  45.4762         28
  45.4948         27
  45.5134         24
  45.5320         23
  45.5505         26
  45.5691         24
  45.5877         25
  45.6063         25
  45.6248         27
  45.6434         28
  45.6620         27
  45.6806         23
  45.6991         28
  45.7177         24
  45.7363         23
  45.7549         21
  45.7734         19
  45.7920         24
  45.8106         26
  45.8292         22
  45.8477         26
  45.8663         24
  45.8849         19
  45.9035         16
  45.9220         26
  45.9406         23
  45.9592         27
  45.9778         30
  45.9963         25
  46.0149         25
  46.0335         29
  46.0521         24
  46.0707         17
  46.0892         28
  46.1078         25
  46.1264         17
  46.1450         29
  46.1635         22
  46.1821         23
  46.2007         26
  46.2193         26
  46.2378         17
  46.2564         21
  46.2750         26
  46.2936         21
  46.3121         21
  46.3307         24
  46.3493         24
  46.3679         23
  46.3864         17
  46.4050         26
  46.4236         29
  46.4422         20
  46.4607         25
  46.4793         22
  46.4979         28
  46.5165         28
  46.5350         36
  46.5536         16
  46.5722         29
  46.5908         25
  46.6093         16
  46.6279         23
  46.6465         24
  46.6651         21
  46.6836         21
  46.7022         25
  46.7208         17
  46.7394         23
  46.7579         26
  46.7765         30
  46.7951         27
  46.8137         28
  46.8323         22
  46.8508         28
  46.8694         31
  46.8880         11
  46.9066         25
  46.9251         28
  46.9437         24
  46.9623         26
  46.9809         22
  46.9994         23
  47.0180         23
  47.0366         22
  47.0552         23
  47.0737         24
  47.0923         20
  47.1109         23
  47.1295         18
  47.1480         24
  47.1666         31
  47.1852         19
  47.2038         30
  47.2223         32
  47.2409         13
  47.2595         14
  47.2781         22
  47.2966         18
  47.3152         25
  47.3338         21
  47.3524         17
  47.3709         25
  47.3895         24
  47.4081         29
  47.4267         21
  47.4452         26
  47.4638         21
  47.4824         25
  47.5010         26
  47.5195         25
  47.5381         33
  47.5567         31
  47.5753         24
  47.5939         23
  47.6124         27
  47.6310         26
  47.6496         19
  47.6682         33
  47.6867         34
  47.7053         33
  47.7239         18
  47.7425         25
  47.7610         24
  47.7796         23
  47.7982         28
  47.8168         29
  47.8353         24
  47.8539         27
  47.8725         29
  47.8911         28
  47.9096         26
  47.9282         20
  47.9468         19
  47.9654         27
  47.9839         22
  48.0025         22
  48.0211         25
  48.0397         30
  48.0582         29
  48.0768         23
  48.0954         29
  48.1140         14
  48.1325         17
  48.1511         19
  48.1697         26
  48.1883         34
  48.2068         24
  48.2254         20
  48.2440         25
  48.2626         27
  48.2811         28
  48.2997         25
  48.3183         27
  48.3369         31
  48.3555         25
  48.3740         19
  48.3926         27
  48.4112         26
  48.4298         21
  48.4483         25
  48.4669         26
  48.4855         25
  48.5041         27
  48.5226         26
  48.5412         24
  48.5598         24
  48.5784         24
  48.5969         25
  48.6155         24
  48.6341         18
  48.6527         23
  48.6712         27
  48.6898         28
  48.7084         16
  48.7270         23
  48.7455         24
  48.7641         19
  48.7827         27
  48.8013         30
  48.8198         33
  48.8384         18
  48.8570         28
  48.8756         32
  48.8941         28
  48.9127         21
  48.9313         36
  48.9499         48
  48.9684         35
  48.9870         30
  49.0056         30
  49.0242         29
  49.0427         23
  49.0613         22
  49.0799         32
  49.0985         35
  49.1171         23
  49.1356         25
  49.1542         18
  49.1728         21
  49.1914         25
  49.2099         24
  49.2285         22
  49.2471         18
  49.2657         29
  49.2842         27
  49.3028         29
  49.3214         19
  49.3400         21
  49.3585         14
  49.3771         16
  49.3957         26
  49.4143         30
  49.4328         21
  49.4514         23
  49.4700         25
  49.4886         19
  49.5071         19
  49.5257         23
  49.5443         24
  49.5629         22
  49.5814         20
  49.6000         23
  49.6186         19
  49.6372         32
  49.6557         20
  49.6743         30
  49.6929         29
  49.7115         23
  49.7300         19
  49.7486         29
  49.7672         27
  49.7858         21
  49.8043         24
  49.8229         22
  49.8415         26
  49.8601         19
  49.8786         14
  49.8972         24
  49.9158         18
  49.9344         26
  49.9530         19
  49.9715         30
  49.9901         22
  50.0087         19
  50.0273         30
  50.0458         32
  50.0644         26
  50.0830         20
  50.1016         20
  50.1201         25
  50.1387         25
  50.1573         21
  50.1759         20
  50.1944         30
  50.2130         24
  50.2316         22
  50.2502         24
  50.2687         25
  50.2873         31
  50.3059         28
  50.3245         27
  50.3430         17
  50.3616         27
  50.3802         20
  50.3988         16
  50.4173         19
  50.4359         25
  50.4545         23
  50.4731         18
  50.4916         25
  50.5102         21
  50.5288         22
  50.5474         20
  50.5659         27
  50.5845         25
  50.6031         19
  50.6217         22
  50.6402         18
  50.6588         22
  50.6774         16
  50.6960         28
  50.7146         21
  50.7331         19
  50.7517         23
  50.7703         24
  50.7889         24
  50.8074         30
  50.8260         28
  50.8446         22
  50.8632         19
  50.8817         19
  50.9003         25
  50.9189         24
  50.9375         15
  50.9560         26
  50.9746         16
  50.9932         17
  51.0118         18
  51.0303         18
  51.0489         28
  51.0675         18
  51.0861         25
  51.1046         25
  51.1232         21
  51.1418         23
  51.1604         21
  51.1789         20
  51.1975         19
  51.2161         19
  51.2347         21
  51.2532         25
  51.2718         24
  51.2904         21
  51.3090         23
  51.3275         32
  51.3461         22
  51.3647         19
  51.3833         19
  51.4018         35
  51.4204         32
  51.4390         22
  51.4576         27
  51.4762         24
  51.4947         19
  51.5133         29
  51.5319         21
  51.5505         16
  51.5690         26
  51.5876         23
  51.6062         19
  51.6248         30
  51.6433         31
  51.6619         17
  51.6805         25
  51.6991         20
  51.7176         25
  51.7362         25
  51.7548         23
  51.7734         25
  51.7919         24
  51.8105         31
  51.8291         21
  51.8477         19
  51.8662         22
  51.8848         27
  51.9034         17
  51.9220         22
  51.9405         19
  51.9591         23
  51.9777         25
  51.9963         34
  52.0148         24
  52.0334         22
  52.0520         18
  52.0706         21
  52.0891         21
  52.1077         23
  52.1263         25
  52.1449         16
  52.1634         19
  52.1820         17
  52.2006         19
  52.2192         28
  52.2378         20
  52.2563         25
  52.2749          9
  52.2935         21
  52.3121         21
  52.3306         28
  52.3492         19
  52.3678         20
  52.3864         27
  52.4049         29
  52.4235         18
  52.4421         21
  52.4607          9
  52.4792         23
  52.4978         15
  52.5164         24
  52.5350         18
  52.5535         11
  52.5721         21
  52.5907         21
  52.6093         19
  52.6278         17
  52.6464         22
  52.6650         19
  52.6836         17
  52.7021         19
  52.7207         31
  52.7393         24
  52.7579         25
  52.7764         16
  52.7950         14
  52.8136         15
  52.8322         13
  52.8507         21
  52.8693         26
  52.8879         20
  52.9065         14
  52.9250         18
  52.9436         23
  52.9622         20
  52.9808         18
  52.9994         20
  53.0179         21
  53.0365         27
  53.0551         21
  53.0737         22
  53.0922         20
  53.1108         24
  53.1294         20
  53.1480         20
  53.1665         20
  53.1851         21
  53.2037         18
  53.2223         30
  53.2408         28
  53.2594         21
  53.2780         17
  53.2966         16
  53.3151         13
  53.3337         21
  53.3523         16
  53.3709         24
  53.3894         29
  53.4080         16
  53.4266         27
  53.4452         17
  53.4637         29
  53.4823         28
  53.5009         17
  53.5195         21
  53.5380         23
  53.5566         21
  53.5752         27
  53.5938         20
  53.6123         16
  53.6309         22
  53.6495         18
  53.6681         16
  53.6866         23
  53.7052         19
  53.7238         18
  53.7424         20
  53.7610         25
  53.7795         13
  53.7981         18
  53.8167         17
  53.8353         28
  53.8538         20
  53.8724         21
  53.8910         23
  53.9096         19
  53.9281         17
  53.9467         20
  53.9653         25
  53.9839         36
  54.0024         32
  54.0210         21
  54.0396         21
  54.0582         30
  54.0767         20
  54.0953         17
  54.1139         26
  54.1325         23
  54.1510         27
  54.1696         32
  54.1882         33
  54.2068         20
  54.2253         24
  54.2439         31
  54.2625         23
  54.2811         19
  54.2996         16
  54.3182         22
  54.3368         18
  54.3554         19
  54.3739         17
  54.3925         22
  54.4111         20
  54.4297         26
  54.4482         21
  54.4668         18
  54.4854         20
  54.5040         19
  54.5225         23
  54.5411         19
  54.5597         27
  54.5783         23
  54.5969         24
  54.6154         30
  54.6340         24
  54.6526         22
  54.6712         20
  54.6897         25
  54.7083         27
  54.7269         11
  54.7455         24
  54.7640         20
  54.7826         17
  54.8012         21
  54.8198         16
  54.8383         24
  54.8569         23
  54.8755         14
  54.8941         26
  54.9126         20
  54.9312         21
  54.9498         14
  54.9684         21
  54.9869         20
  55.0055         21
  55.0241         25
  55.0427         25
  55.0612         22
  55.0798         14
  55.0984         21
  55.1170         25
  55.1355         28
  55.1541         18
  55.1727         20
  55.1913         19
  55.2098         27
  55.2284         30
  55.2470         18
  55.2656         20
  55.2841         21
  55.3027         19
  55.3213         17
  55.3399         25
  55.3585         24
  55.3770         23
  55.3956         22
  55.4142         16
  55.4328         17
  55.4513         25
  55.4699         19
  55.4885         15
  55.5071         24
  55.5256         18
  55.5442         16
  55.5628         22
  55.5814         19
  55.5999         16
  55.6185         24
  55.6371         27
  55.6557         24
  55.6742         19
  55.6928         26
  55.7114         28
  55.7300         24
  55.7485         25
  55.7671         20
  55.7857         15
  55.8043         19
  55.8228         22
  55.8414         20
  55.8600         26
  55.8786         19
  55.8971         23
  55.9157         29
  55.9343         24
  55.9529         26
  55.9714         22
  55.9900         26
  56.0086         25
  56.0272         17
  56.0457         23
  56.0643         17
  56.0829         21
  56.1015         22
  56.1201         27
  56.1386         33
  56.1572         27
  56.1758         28
  56.1944         24
  56.2129         22
  56.2315         22
  56.2501         26
  56.2687         30
  56.2872         27
  56.3058         23
  56.3244         20
  56.3430         19
  56.3615         24
  56.3801         18
  56.3987         36
  56.4173         24
  56.4358         24
  56.4544         18
  56.4730         16
  56.4916         27
  56.5101         26
  56.5287         24
  56.5473         13
  56.5659         10
  56.5844         13
  56.6030         19
  56.6216         22
  56.6402         24
  56.6587         14
  56.6773         30
  56.6959         29
  56.7145         23
  56.7330         26
  56.7516         21
  56.7702         17
  56.7888         23
  56.8073         23
  56.8259         21
  56.8445         14
  56.8631         22
  56.8817         15
  56.9002         18
  56.9188         19
  56.9374         16
  56.9560         14
  56.9745         15
  56.9931         24
  57.0117         20
  57.0303         25
  57.0488         14
  57.0674         17
  57.0860         18
  57.1046         27
  57.1231         21
  57.1417         22
  57.1603         17
  57.1789         22
  57.1974         22
  57.2160         30
  57.2346         17
  57.2532         29
  57.2717         24
  57.2903         27
  57.3089         26
  57.3275         21
  57.3460         22
  57.3646         13
  57.3832         19
  57.4018         12
  57.4203         18
  57.4389         23
  57.4575         15
  57.4761         21
  57.4946         26
  57.5132         22
  57.5318         19
  57.5504         21
  57.5689         30
  57.5875         28
  57.6061         21
  57.6247         13
  57.6433         19
  57.6618         25
  57.6804         22
  57.6990         22
  57.7176         21
  57.7361         23
  57.7547         22
  57.7733         26
  57.7919         17
  57.8104         18
  57.8290         15
  57.8476         22
  57.8662         20
  57.8847         23
  57.9033         19
  57.9219         30
  57.9405         19
  57.9590         21
  57.9776         27
  57.9962         25
  58.0148         18
  58.0333         21
  58.0519         27
  58.0705         18
  58.0891         15
  58.1076         21
  58.1262         22
  58.1448         21
  58.1634         20
  58.1819         11
  58.2005         25
  58.2191         19
  58.2377         12
  58.2562         26
  58.2748         24
  58.2934         20
  58.3120         15
  58.3305         15
  58.3491         21
  58.3677         28
  58.3863         16
  58.4049         16
  58.4234         28
  58.4420         12
  58.4606         26
  58.4792         18
  58.4977         23
  58.5163         15
  58.5349         10
  58.5535         22
  58.5720         20
  58.5906         21
  58.6092         19
  58.6278         22
  58.6463         22
  58.6649         29
  58.6835         27
  58.7021         16
  58.7206         18
  58.7392         25
  58.7578         28
  58.7764         17
  58.7949         25
  58.8135         20
  58.8321         21
  58.8507         33
  58.8692         22
  58.8878         17
  58.9064         27
  58.9250         18
  58.9435         22
  58.9621         14
  58.9807         13
  58.9993         21
  59.0178         19
  59.0364         18
  59.0550         17
  59.0736         28
  59.0921         19
  59.1107         17
  59.1293         24
  59.1479         19
  59.1664         20
  59.1850         19
  59.2036         22
  59.2222         17
  59.2408         20
  59.2593         18
  59.2779         11
  59.2965         21
  59.3151         27
  59.3336         22
  59.3522         27
  59.3708         28
  59.3894         27
  59.4079         21
  59.4265         17
  59.4451         20
  59.4637         23
  59.4822         20
  59.5008         22
  59.5194         17
  59.5380         24
  59.5565         25
  59.5751         14
  59.5937         14
  59.6123         14
  59.6308         18
  59.6494         18
  59.6680         20
  59.6866         22
  59.7051         25
  59.7237         27
  59.7423         23
  59.7609         16
  59.7794         22
  59.7980         22
  59.8166         19
  59.8352         16
  59.8537         19
  59.8723         14
  59.8909         16
  59.9095         16
  59.9280         18
  59.9466         18
  59.9652         13
  59.9838         23
  60.0024         19
