; (content of file Y:\Sam\Apurva-07-20-2022\puck4\ML_20220718_3_SJD_0_LaB6-2min.raw)
_FILEVERSION = 3
_SAMPLE = ML_20220718_3_SJD_0_LaB6-2mi
_+SAMPLE = 
_SITE = USA
_USER = Administrator
_GONIOMETER_CODE = 20
; Goniometer : D8 theta/2theta, stage : Unknown
_ATTACHMENTS_CODE = 0
_GONIOMETER_RADIUS = 200.5
_FIXED_DIVSLIT = 0.6
_FIXED_SAMPLESLIT = 0
_SOLLER_SLITS = 2
_FIXED_DETSLIT = 9.55
_MONOCHROMATOR = 0
; Incident beam monochromator : None
_SOLLER_SLITS_2 = N
_THIN_FILM = N
_BETA_FILTER = Y
_FIXED_ANTISLIT = 5.89
_ANALYZER_CODE = 0
; Received beam analyzer : None
_DATEMEASURED = "21-Jul-2022 02:53:54"
_WL_UNIT = A
_WL1 = 1.5406
_WL2 = 1.54439
_WL3 = 1.39222
_WLRATIO = 0.5
_ANODE = Cu
_V4_INF_CREATOR = XRDWizard
_V4_INF_CREATOR_VERSION = V2.9.0.22
_V4_INF_WIZARD_VERSION = V2.9.0.22
_V4_INF_WIZARD_ADDINS = V2.9.0.22
_V4_INF_WIZARD_DOCTYPE = XRD
_V4_INF_OSUSER = McQueenLab
_V4_INF_USER = Administrator
_V4_INF_SITE = USA
_V4_INF_SAMPLEID = ML_20220718_3_SJD_0_LaB6-2mi

; Data for range 1
_DRIVE = COUPLED
_STEPTIME = 5.64
_STEPSIZE = 0.0185756
_STEPMODE = C
_START = 5
_THETA = 2.5
_2THETA = 5
_KHI = 0
_PHI = 0
_X = 0
_Y = 0
_Z = 0
_DETECTOR = 5
; Detector type : Unknown
_DETECTORSLIT = unkn
_AUX1 = 0
_AUX2 = 0
_AUX3 = 0
_TIMESTARTED = 15
_TEMP_RATE = -1
_TEMP_DELAY = -1
_KV = 40
_MA = 40
_RANGE_WL = 1.5406
_3DPLANE = 0
_V4_ADDITIONALDETECTOR = 257
_V4_PSD2THETA = 3.4139
_V4_PSDCHANNEL1 = 0
_V4_PSDAPERTURE = 12.68
_V4_PSDTYPE = 5
_V4_PSDFIXED = 0
_V4_COUNTERS_MASK = 4096
_V4_DRIVES_MASK = 0
_V4_ENCODERS_MASK = 0
_2THETACOUNTS = 1
; 2THETA  PSD
   5.0000        127
   5.0186        125
   5.0372        130
   5.0557        138
   5.0743        113
   5.0929        142
   5.1115        109
   5.1300        140
   5.1486        115
   5.1672        135
   5.1858        113
   5.2043        124
   5.2229        123
   5.2415        119
   5.2601        115
   5.2786        123
   5.2972        111
   5.3158        100
   5.3344         97
   5.3529        123
   5.3715        131
   5.3901         97
   5.4087        121
   5.4272        104
   5.4458        114
   5.4644         94
   5.4830        117
   5.5015        110
   5.5201        102
   5.5387        119
   5.5573        107
   5.5758        119
   5.5944        119
   5.6130        106
   5.6316        104
   5.6501        116
   5.6687        113
   5.6873        124
   5.7059        101
   5.7244        100
   5.7430        107
   5.7616        104
   5.7802        102
   5.7988         88
   5.8173        117
   5.8359        100
   5.8545         87
   5.8731        101
   5.8916         99
   5.9102        106
   5.9288        123
   5.9474         91
   5.9659         92
   5.9845         74
   6.0031        107
   6.0217         91
   6.0402         97
   6.0588        105
   6.0774         98
   6.0960         93
   6.1145         94
   6.1331         99
   6.1517         80
   6.1703         93
   6.1888         91
   6.2074         76
   6.2260         89
   6.2446         91
   6.2631         94
   6.2817         95
   6.3003         98
   6.3189         96
   6.3374        100
   6.3560         82
   6.3746         83
   6.3932         80
   6.4117         95
   6.4303         83
   6.4489         88
   6.4675         90
   6.4860         86
   6.5046         89
   6.5232         97
   6.5418         89
   6.5604         79
   6.5789         77
   6.5975         93
   6.6161         62
   6.6347         76
   6.6532         74
   6.6718         97
   6.6904         89
   6.7090         74
   6.7275         87
   6.7461         77
   6.7647        101
   6.7833         80
   6.8018         90
   6.8204         74
   6.8390         87
   6.8576         83
   6.8761         83
   6.8947         71
   6.9133         75
   6.9319         82
   6.9504         69
   6.9690         77
   6.9876         68
   7.0062         76
   7.0247         82
   7.0433         72
   7.0619         85
   7.0805         68
   7.0990         61
   7.1176         67
   7.1362         90
   7.1548         79
   7.1733         82
   7.1919         76
   7.2105         71
   7.2291         76
   7.2476         73
   7.2662         65
   7.2848         83
   7.3034         88
   7.3220         84
   7.3405         66
   7.3591         70
   7.3777         70
   7.3963         91
   7.4148         90
   7.4334         83
   7.4520         72
   7.4706         76
   7.4891         83
   7.5077         78
   7.5263         82
   7.5449         75
   7.5634         85
   7.5820         86
   7.6006         97
   7.6192         77
   7.6377         86
   7.6563         89
   7.6749         77
   7.6935         81
   7.7120        101
   7.7306         79
   7.7492         90
   7.7678         95
   7.7863         77
   7.8049         87
   7.8235         94
   7.8421         78
   7.8606         93
   7.8792         87
   7.8978         83
   7.9164         68
   7.9349         90
   7.9535         83
   7.9721        110
   7.9907         83
   8.0092         90
   8.0278         81
   8.0464         93
   8.0650         74
   8.0835         92
   8.1021         78
   8.1207         99
   8.1393         83
   8.1579         89
   8.1764         94
   8.1950        101
   8.2136         87
   8.2322         84
   8.2507         97
   8.2693         78
   8.2879        104
   8.3065         97
   8.3250         86
   8.3436         75
   8.3622        115
   8.3808         91
   8.3993         98
   8.4179         96
   8.4365        111
   8.4551         85
   8.4736         96
   8.4922         83
   8.5108         92
   8.5294        109
   8.5479         99
   8.5665         78
   8.5851         99
   8.6037        108
   8.6222         97
   8.6408        110
   8.6594         92
   8.6780         78
   8.6965         82
   8.7151        100
   8.7337        100
   8.7523        104
   8.7708        109
   8.7894         78
   8.8080         97
   8.8266        108
   8.8451        107
   8.8637         92
   8.8823         80
   8.9009         92
   8.9195         93
   8.9380        112
   8.9566         96
   8.9752        104
   8.9938         97
   9.0123        112
   9.0309         98
   9.0495        110
   9.0681        108
   9.0866         97
   9.1052        115
   9.1238        105
   9.1424         96
   9.1609        128
   9.1795         83
   9.1981        111
   9.2167         92
   9.2352        103
   9.2538         94
   9.2724        107
   9.2910        113
   9.3095        111
   9.3281        116
   9.3467        115
   9.3653         84
   9.3838         95
   9.4024        104
   9.4210        104
   9.4396        108
   9.4581         96
   9.4767         99
   9.4953         93
   9.5139        105
   9.5324         98
   9.5510         93
   9.5696        111
   9.5882        102
   9.6067        112
   9.6253        104
   9.6439        100
   9.6625        113
   9.6811        107
   9.6996        103
   9.7182        130
   9.7368        113
   9.7554        111
   9.7739        118
   9.7925         89
   9.8111        108
   9.8297        114
   9.8482        116
   9.8668         96
   9.8854        104
   9.9040        123
   9.9225        124
   9.9411        111
   9.9597        118
   9.9783        108
   9.9968        114
  10.0154        116
  10.0340        120
  10.0526        129
  10.0711        113
  10.0897        123
  10.1083        101
  10.1269        130
  10.1454        117
  10.1640        103
  10.1826        103
  10.2012        100
  10.2197        112
  10.2383        118
  10.2569         99
  10.2755        125
  10.2940         98
  10.3126        113
  10.3312        117
  10.3498        120
  10.3683        116
  10.3869         96
  10.4055        116
  10.4241        121
  10.4427        110
  10.4612        110
  10.4798        103
  10.4984        135
  10.5170        112
  10.5355        116
  10.5541        107
  10.5727        111
  10.5913        101
  10.6098        108
  10.6284        125
  10.6470        111
  10.6656        123
  10.6841        115
  10.7027        118
  10.7213        117
  10.7399         96
  10.7584        134
  10.7770        136
  10.7956        132
  10.8142         91
  10.8327        110
  10.8513        113
  10.8699        123
  10.8885        122
  10.9070        116
  10.9256        140
  10.9442        123
  10.9628        105
  10.9813        136
  10.9999        103
  11.0185         98
  11.0371        118
  11.0556         86
  11.0742        111
  11.0928        111
  11.1114        110
  11.1299        110
  11.1485        112
  11.1671        116
  11.1857         96
  11.2043        127
  11.2228        128
  11.2414        106
  11.2600        129
  11.2786        123
  11.2971         88
  11.3157        120
  11.3343         98
  11.3529        110
  11.3714        109
  11.3900        110
  11.4086        112
  11.4272        112
  11.4457        122
  11.4643        116
  11.4829        121
  11.5015        120
  11.5200        122
  11.5386        124
  11.5572        126
  11.5758        101
  11.5943        118
  11.6129        121
  11.6315        129
  11.6501        126
  11.6686        111
  11.6872        119
  11.7058        125
  11.7244        114
  11.7429        113
  11.7615        109
  11.7801        111
  11.7987        127
  11.8172        103
  11.8358         99
  11.8544        102
  11.8730        114
  11.8915        115
  11.9101        113
  11.9287        103
  11.9473        111
  11.9659        113
  11.9844        135
  12.0030        102
  12.0216        103
  12.0402        105
  12.0587        110
  12.0773         98
  12.0959        118
  12.1145        107
  12.1330        104
  12.1516        105
  12.1702        107
  12.1888         89
  12.2073        114
  12.2259        105
  12.2445        103
  12.2631         97
  12.2816         99
  12.3002        109
  12.3188        117
  12.3374        111
  12.3559        103
  12.3745        116
  12.3931        102
  12.4117        102
  12.4302        108
  12.4488        104
  12.4674         98
  12.4860         96
  12.5045        119
  12.5231        104
  12.5417        119
  12.5603        105
  12.5788         91
  12.5974        116
  12.6160        101
  12.6346        101
  12.6531        109
  12.6717        121
  12.6903         91
  12.7089         96
  12.7274         95
  12.7460         91
  12.7646         96
  12.7832        109
  12.8018        111
  12.8203         97
  12.8389         98
  12.8575         88
  12.8761         88
  12.8946         97
  12.9132         88
  12.9318         96
  12.9504         81
  12.9689         99
  12.9875         95
  13.0061        101
  13.0247         88
  13.0432        118
  13.0618         95
  13.0804         94
  13.0990        110
  13.1175         76
  13.1361        104
  13.1547         91
  13.1733         93
  13.1918         97
  13.2104        115
  13.2290        109
  13.2476         98
  13.2661        100
  13.2847         97
  13.3033         93
  13.3219         89
  13.3404         91
  13.3590         89
  13.3776        100
  13.3962         85
  13.4147         95
  13.4333         81
  13.4519         83
  13.4705         84
  13.4890         97
  13.5076        102
  13.5262         90
  13.5448         88
  13.5634         92
  13.5819         92
  13.6005         99
  13.6191         87
  13.6377         90
  13.6562         90
  13.6748         94
  13.6934         94
  13.7120         95
  13.7305         90
  13.7491         97
  13.7677         85
  13.7863         79
  13.8048         97
  13.8234        103
  13.8420         87
  13.8606         92
  13.8791         93
  13.8977         79
  13.9163         90
  13.9349         91
  13.9534        108
  13.9720         77
  13.9906         83
  14.0092         65
  14.0277        100
  14.0463         94
  14.0649         97
  14.0835         88
  14.1020         86
  14.1206         74
  14.1392         94
  14.1578         77
  14.1763         93
  14.1949         96
  14.2135         94
  14.2321         80
  14.2506         76
  14.2692         94
  14.2878         89
  14.3064         92
  14.3250         86
  14.3435         78
  14.3621         76
  14.3807         87
  14.3993         79
  14.4178         82
  14.4364         79
  14.4550         79
  14.4736         70
  14.4921         86
  14.5107         80
  14.5293         84
  14.5479         71
  14.5664         80
  14.5850         94
  14.6036         91
  14.6222         74
  14.6407         86
  14.6593         92
  14.6779         92
  14.6965         76
  14.7150         72
  14.7336         88
  14.7522         72
  14.7708         85
  14.7893         67
  14.8079         61
  14.8265         78
  14.8451         71
  14.8636         96
  14.8822         68
  14.9008         92
  14.9194         72
  14.9379         77
  14.9565         76
  14.9751         77
  14.9937         78
  15.0122         87
  15.0308         99
  15.0494        109
  15.0680         77
  15.0866         74
  15.1051        109
  15.1237         85
  15.1423         81
  15.1609         87
  15.1794         97
  15.1980         83
  15.2166         83
  15.2352         79
  15.2537         88
  15.2723         78
  15.2909         91
  15.3095         86
  15.3280         75
  15.3466         69
  15.3652         85
  15.3838         85
  15.4023         81
  15.4209         89
  15.4395         80
  15.4581         66
  15.4766         81
  15.4952         89
  15.5138         66
  15.5324         63
  15.5509         95
  15.5695         74
  15.5881         68
  15.6067         71
  15.6252         90
  15.6438         98
  15.6624         82
  15.6810         84
  15.6995         78
  15.7181        101
  15.7367         74
  15.7553         86
  15.7738         72
  15.7924         87
  15.8110         75
  15.8296         83
  15.8482         61
  15.8667         83
  15.8853         83
  15.9039         83
  15.9225         64
  15.9410         93
  15.9596         71
  15.9782         73
  15.9968         86
  16.0153         73
  16.0339         68
  16.0525         85
  16.0711         84
  16.0896         80
  16.1082         71
  16.1268         88
  16.1454         91
  16.1639         81
  16.1825         90
  16.2011         69
  16.2197         67
  16.2382         66
  16.2568         76
  16.2754         71
  16.2940         80
  16.3125         65
  16.3311         85
  16.3497         87
  16.3683         66
  16.3868         86
  16.4054         77
  16.4240         79
  16.4426         94
  16.4611         91
  16.4797         94
  16.4983         89
  16.5169         90
  16.5354         86
  16.5540         91
  16.5726         90
  16.5912         68
  16.6097         74
  16.6283         84
  16.6469         67
  16.6655         84
  16.6841         70
  16.7026         56
  16.7212         77
  16.7398         85
  16.7584         74
  16.7769         94
  16.7955         90
  16.8141         75
  16.8327         75
  16.8512         87
  16.8698         76
  16.8884         75
  16.9070         59
  16.9255         61
  16.9441         75
  16.9627         82
  16.9813         90
  16.9998         66
  17.0184         94
  17.0370         80
  17.0556         98
  17.0741         77
  17.0927         86
  17.1113         73
  17.1299         71
  17.1484         82
  17.1670         74
  17.1856         85
  17.2042         66
  17.2227         90
  17.2413         79
  17.2599         70
  17.2785         76
  17.2970         75
  17.3156         71
  17.3342         76
  17.3528         97
  17.3713         73
  17.3899         71
  17.4085         83
  17.4271         87
  17.4457         83
  17.4642         70
  17.4828         83
  17.5014         73
  17.5200         70
  17.5385         74
  17.5571         77
  17.5757         88
  17.5943         86
  17.6128         71
  17.6314         80
  17.6500         90
  17.6686         92
  17.6871         86
  17.7057         77
  17.7243         82
  17.7429         78
  17.7614         83
  17.7800         79
  17.7986         82
  17.8172         84
  17.8357         78
  17.8543         64
  17.8729         68
  17.8915         77
  17.9100         80
  17.9286         70
  17.9472         65
  17.9658         70
  17.9843         76
  18.0029         82
  18.0215         89
  18.0401         81
  18.0586         71
  18.0772         89
  18.0958         86
  18.1144         81
  18.1329         76
  18.1515         86
  18.1701         98
  18.1887         74
  18.2073         75
  18.2258         74
  18.2444         80
  18.2630         71
  18.2816         77
  18.3001         84
  18.3187         86
  18.3373         74
  18.3559         67
  18.3744         82
  18.3930         65
  18.4116         86
  18.4302         71
  18.4487         77
  18.4673         76
  18.4859         89
  18.5045         90
  18.5230         93
  18.5416         76
  18.5602         69
  18.5788         84
  18.5973         71
  18.6159         85
  18.6345         81
  18.6531         84
  18.6716         87
  18.6902         87
  18.7088         69
  18.7274         81
  18.7459         90
  18.7645         78
  18.7831         80
  18.8017         95
  18.8202         90
  18.8388         84
  18.8574         75
  18.8760         80
  18.8945         85
  18.9131         87
  18.9317         90
  18.9503         92
  18.9689         91
  18.9874         94
  19.0060         87
  19.0246         76
  19.0432         87
  19.0617         73
  19.0803         72
  19.0989         84
  19.1175         76
  19.1360        100
  19.1546         81
  19.1732         81
  19.1918         79
  19.2103         79
  19.2289         71
  19.2475         87
  19.2661         90
  19.2846         76
  19.3032         85
  19.3218         91
  19.3404         82
  19.3589         77
  19.3775         81
  19.3961         75
  19.4147         76
  19.4332         80
  19.4518         99
  19.4704         88
  19.4890         92
  19.5075         81
  19.5261         72
  19.5447         97
  19.5633         78
  19.5818         77
  19.6004         89
  19.6190         85
  19.6376         82
  19.6561         89
  19.6747         88
  19.6933         89
  19.7119         91
  19.7305         68
  19.7490         82
  19.7676         90
  19.7862         85
  19.8048         74
  19.8233         75
  19.8419        100
  19.8605         77
  19.8791        102
  19.8976        110
  19.9162         92
  19.9348         91
  19.9534         97
  19.9719         66
  19.9905         91
  20.0091        101
  20.0277         89
  20.0462         74
  20.0648         83
  20.0834         96
  20.1020         73
  20.1205         83
  20.1391         77
  20.1577         87
  20.1763         84
  20.1948        100
  20.2134        105
  20.2320         93
  20.2506         79
  20.2691        101
  20.2877         82
  20.3063         91
  20.3249         82
  20.3434         93
  20.3620         75
  20.3806         75
  20.3992         73
  20.4177         80
  20.4363         78
  20.4549         95
  20.4735         99
  20.4921         89
  20.5106         89
  20.5292         99
  20.5478         90
  20.5664         97
  20.5849         98
  20.6035         80
  20.6221         89
  20.6407         78
  20.6592         80
  20.6778         89
  20.6964         81
  20.7150         96
  20.7335         84
  20.7521         84
  20.7707         95
  20.7893        102
  20.8078        103
  20.8264         91
  20.8450         98
  20.8636         97
  20.8821         95
  20.9007         99
  20.9193         88
  20.9379         97
  20.9564         84
  20.9750         91
  20.9936         97
  21.0122        100
  21.0307         89
  21.0493         96
  21.0679         90
  21.0865        102
  21.1050         93
  21.1236        104
  21.1422        114
  21.1608        129
  21.1793        130
  21.1979        160
  21.2165        169
  21.2351        141
  21.2537        150
  21.2722        153
  21.2908        155
  21.3094        188
  21.3280        236
  21.3465        271
  21.3651        195
  21.3837        187
  21.4023        173
  21.4208        134
  21.4394        121
  21.4580         97
  21.4766         98
  21.4951         87
  21.5137         84
  21.5323         88
  21.5509         89
  21.5694         86
  21.5880         88
  21.6066        108
  21.6252        103
  21.6437        101
  21.6623        100
  21.6809         86
  21.6995         97
  21.7180        111
  21.7366        101
  21.7552         76
  21.7738         99
  21.7923         91
  21.8109         80
  21.8295         79
  21.8481         84
  21.8666         98
  21.8852         96
  21.9038        102
  21.9224         84
  21.9409        107
  21.9595         90
  21.9781         92
  21.9967         94
  22.0152         89
  22.0338         89
  22.0524         88
  22.0710        100
  22.0896         98
  22.1081         85
  22.1267         93
  22.1453        105
  22.1639        113
  22.1824         87
  22.2010         88
  22.2196         71
  22.2382        104
  22.2567         92
  22.2753        105
  22.2939        104
  22.3125        108
  22.3310         91
  22.3496         94
  22.3682        115
  22.3868        104
  22.4053         90
  22.4239         87
  22.4425         90
  22.4611         86
  22.4796         83
  22.4982         95
  22.5168        100
  22.5354        111
  22.5539         84
  22.5725        102
  22.5911         88
  22.6097         91
  22.6282         82
  22.6468         81
  22.6654        100
  22.6840        103
  22.7025         88
  22.7211         99
  22.7397         95
  22.7583         90
  22.7768         93
  22.7954        111
  22.8140         87
  22.8326        104
  22.8512        106
  22.8697         94
  22.8883         81
  22.9069         91
  22.9255         95
  22.9440         83
  22.9626         95
  22.9812         96
  22.9998         96
  23.0183        120
  23.0369         96
  23.0555        104
  23.0741         96
  23.0926        101
  23.1112         95
  23.1298         97
  23.1484         84
  23.1669        112
  23.1855         85
  23.2041        103
  23.2227        111
  23.2412         92
  23.2598         90
  23.2784        100
  23.2970         91
  23.3155         89
  23.3341        104
  23.3527         72
  23.3713         99
  23.3898        109
  23.4084         92
  23.4270        108
  23.4456         85
  23.4641        112
  23.4827         78
  23.5013         89
  23.5199        109
  23.5384        102
  23.5570        102
  23.5756        110
  23.5942         92
  23.6128        102
  23.6313         88
  23.6499         82
  23.6685         86
  23.6871         96
  23.7056        108
  23.7242         92
  23.7428        113
  23.7614        106
  23.7799         91
  23.7985         95
  23.8171         91
  23.8357        108
  23.8542         64
  23.8728        103
  23.8914        101
  23.9100        101
  23.9285         86
  23.9471         95
  23.9657        105
  23.9843        118
  24.0028        117
  24.0214        102
  24.0400        103
  24.0586        108
  24.0771         93
  24.0957         93
  24.1143        102
  24.1329         97
  24.1514         90
  24.1700         88
  24.1886        107
  24.2072        101
  24.2257        101
  24.2443        126
  24.2629        105
  24.2815        109
  24.3000        108
  24.3186        102
  24.3372        108
  24.3558         94
  24.3744         94
  24.3929         86
  24.4115         94
  24.4301        101
  24.4487         93
  24.4672         94
  24.4858         90
  24.5044        109
  24.5230         91
  24.5415         87
  24.5601        105
  24.5787         96
  24.5973         80
  24.6158        112
  24.6344         88
  24.6530         90
  24.6716        100
  24.6901        100
  24.7087         98
  24.7273         93
  24.7459        100
  24.7644         90
  24.7830         96
  24.8016         99
  24.8202         87
  24.8387         97
  24.8573         89
  24.8759        106
  24.8945         99
  24.9130        101
  24.9316        116
  24.9502         77
  24.9688        116
  24.9873         87
  25.0059         94
  25.0245         92
  25.0431        112
  25.0616         91
  25.0802         97
  25.0988        115
  25.1174        109
  25.1360         67
  25.1545         96
  25.1731         93
  25.1917        107
  25.2103         99
  25.2288         97
  25.2474         73
  25.2660         87
  25.2846         93
  25.3031         91
  25.3217         98
  25.3403         86
  25.3589        106
  25.3774        107
  25.3960         78
  25.4146         90
  25.4332         88
  25.4517        103
  25.4703         96
  25.4889         90
  25.5075         83
  25.5260        127
  25.5446         88
  25.5632         86
  25.5818         97
  25.6003        104
  25.6189         92
  25.6375         81
  25.6561         87
  25.6746         88
  25.6932         76
  25.7118         95
  25.7304         93
  25.7489        100
  25.7675         92
  25.7861         89
  25.8047         88
  25.8232         95
  25.8418        127
  25.8604         98
  25.8790        102
  25.8976         71
  25.9161        119
  25.9347         86
  25.9533        106
  25.9719        102
  25.9904         88
  26.0090         99
  26.0276         92
  26.0462         94
  26.0647        101
  26.0833        102
  26.1019         91
  26.1205         97
  26.1390        105
  26.1576        121
  26.1762        106
  26.1948         94
  26.2133        103
  26.2319        107
  26.2505         86
  26.2691         97
  26.2876         92
  26.3062        113
  26.3248         90
  26.3434         87
  26.3619         96
  26.3805        113
  26.3991         96
  26.4177         89
  26.4362         77
  26.4548         90
  26.4734        101
  26.4920         74
  26.5105         99
  26.5291         91
  26.5477         87
  26.5663         93
  26.5848        100
  26.6034        103
  26.6220         82
  26.6406         93
  26.6591        103
  26.6777         94
  26.6963         95
  26.7149         94
  26.7335        120
  26.7520        101
  26.7706        103
  26.7892         82
  26.8078        103
  26.8263         95
  26.8449         87
  26.8635         97
  26.8821         88
  26.9006         85
  26.9192         87
  26.9378         77
  26.9564         87
  26.9749         91
  26.9935         92
  27.0121         89
  27.0307         93
  27.0492        104
  27.0678        102
  27.0864        117
  27.1050         92
  27.1235         95
  27.1421        110
  27.1607         98
  27.1793        109
  27.1978        120
  27.2164        109
  27.2350        136
  27.2536        119
  27.2721        121
  27.2907        114
  27.3093         99
  27.3279         92
  27.3464         80
  27.3650         79
  27.3836         89
  27.4022         91
  27.4207         97
  27.4393         98
  27.4579         99
  27.4765         84
  27.4951         87
  27.5136         94
  27.5322         85
  27.5508         90
  27.5694         80
  27.5879         76
  27.6065         82
  27.6251         71
  27.6437         88
  27.6622         85
  27.6808         85
  27.6994         84
  27.7180         90
  27.7365         83
  27.7551         86
  27.7737        108
  27.7923         82
  27.8108         90
  27.8294         88
  27.8480         80
  27.8666         80
  27.8851        106
  27.9037         75
  27.9223         84
  27.9409         88
  27.9594         92
  27.9780         91
  27.9966         72
  28.0152         74
  28.0337        101
  28.0523        105
  28.0709         65
  28.0895         80
  28.1080         82
  28.1266         82
  28.1452         72
  28.1638         85
  28.1823         79
  28.2009         79
  28.2195         72
  28.2381         81
  28.2567         65
  28.2752         81
  28.2938         76
  28.3124         87
  28.3310         83
  28.3495         80
  28.3681         77
  28.3867         71
  28.4053         92
  28.4238         87
  28.4424         63
  28.4610         73
  28.4796         85
  28.4981         91
  28.5167         93
  28.5353         72
  28.5539         69
  28.5724         84
  28.5910         72
  28.6096         74
  28.6282        100
  28.6467         88
  28.6653         79
  28.6839         83
  28.7025         79
  28.7210         84
  28.7396         87
  28.7582         83
  28.7768         62
  28.7953         68
  28.8139         67
  28.8325         81
  28.8511         79
  28.8696         75
  28.8882         65
  28.9068         85
  28.9254         72
  28.9439         81
  28.9625         75
  28.9811         84
  28.9997         94
  29.0183         87
  29.0368         68
  29.0554         81
  29.0740         84
  29.0926         86
  29.1111         87
  29.1297         79
  29.1483         79
  29.1669         67
  29.1854         81
  29.2040         76
  29.2226         73
  29.2412         69
  29.2597         80
  29.2783         81
  29.2969         74
  29.3155         82
  29.3340         85
  29.3526         83
  29.3712         76
  29.3898         79
  29.4083         80
  29.4269         84
  29.4455         92
  29.4641         71
  29.4826         66
  29.5012         82
  29.5198         73
  29.5384         77
  29.5569         74
  29.5755         74
  29.5941         67
  29.6127         69
  29.6312         64
  29.6498         74
  29.6684         56
  29.6870         62
  29.7055         64
  29.7241         84
  29.7427         72
  29.7613         71
  29.7799         80
  29.7984         72
  29.8170         79
  29.8356         80
  29.8542         76
  29.8727         79
  29.8913         78
  29.9099         76
  29.9285         70
  29.9470         83
  29.9656         70
  29.9842         82
  30.0028         75
  30.0213         77
  30.0399         81
  30.0585         77
  30.0771         82
  30.0956         80
  30.1142         70
  30.1328         74
  30.1514         71
  30.1699         75
  30.1885         68
  30.2071         72
  30.2257         76
  30.2442         90
  30.2628         83
  30.2814        100
  30.3000         91
  30.3185         97
  30.3371        109
  30.3557        148
  30.3743        160
  30.3928        139
  30.4114        120
  30.4300        142
  30.4486        116
  30.4671        100
  30.4857         92
  30.5043         78
  30.5229         76
  30.5415         77
  30.5600         80
  30.5786         93
  30.5972         72
  30.6158         78
  30.6343         67
  30.6529         73
  30.6715         70
  30.6901         77
  30.7086         65
  30.7272         69
  30.7458         68
  30.7644         74
  30.7829         71
  30.8015         65
  30.8201         76
  30.8387         64
  30.8572         80
  30.8758         74
  30.8944         57
  30.9130         75
  30.9315         64
  30.9501         86
  30.9687         70
  30.9873         72
  31.0058         62
  31.0244         60
  31.0430         85
  31.0616         61
  31.0801         71
  31.0987         77
  31.1173         68
  31.1359         79
  31.1544         67
  31.1730         69
  31.1916         72
  31.2102         80
  31.2287         85
  31.2473         63
  31.2659         72
  31.2845         72
  31.3030         79
  31.3216         69
  31.3402         67
  31.3588         72
  31.3774         67
  31.3959         71
  31.4145         69
  31.4331         70
  31.4517         70
  31.4702         66
  31.4888         83
  31.5074         74
  31.5260         73
  31.5445         65
  31.5631         61
  31.5817         76
  31.6003         55
  31.6188         65
  31.6374         58
  31.6560         52
  31.6746         54
  31.6931         69
  31.7117         72
  31.7303         71
  31.7489         61
  31.7674         55
  31.7860         61
  31.8046         64
  31.8232         60
  31.8417         66
  31.8603         65
  31.8789         63
  31.8975         60
  31.9160         69
  31.9346         72
  31.9532         74
  31.9718         73
  31.9903         64
  32.0089         54
  32.0275         64
  32.0461         62
  32.0646         73
  32.0832         48
  32.1018         51
  32.1204         64
  32.1390         70
  32.1575         54
  32.1761         61
  32.1947         74
  32.2133         62
  32.2318         69
  32.2504         68
  32.2690         74
  32.2876         63
  32.3061         57
  32.3247         55
  32.3433         63
  32.3619         67
  32.3804         62
  32.3990         57
  32.4176         68
  32.4362         65
  32.4547         80
  32.4733         55
  32.4919         73
  32.5105         73
  32.5290         62
  32.5476         65
  32.5662         72
  32.5848         74
  32.6033         62
  32.6219         58
  32.6405         55
  32.6591         67
  32.6776         62
  32.6962         58
  32.7148         63
  32.7334         57
  32.7519         65
  32.7705         63
  32.7891         66
  32.8077         73
  32.8262         68
  32.8448         61
  32.8634         61
  32.8820         57
  32.9006         53
  32.9191         60
  32.9377         67
  32.9563         42
  32.9749         67
  32.9934         81
  33.0120         55
  33.0306         63
  33.0492         66
  33.0677         64
  33.0863         59
  33.1049         45
  33.1235         47
  33.1420         72
  33.1606         60
  33.1792         60
  33.1978         67
  33.2163         59
  33.2349         70
  33.2535         68
  33.2721         55
  33.2906         65
  33.3092         67
  33.3278         62
  33.3464         55
  33.3649         72
  33.3835         58
  33.4021         56
  33.4207         62
  33.4392         47
  33.4578         54
  33.4764         54
  33.4950         58
  33.5135         57
  33.5321         57
  33.5507         63
  33.5693         67
  33.5878         66
  33.6064         54
  33.6250         54
  33.6436         64
  33.6622         66
  33.6807         54
  33.6993         71
  33.7179         63
  33.7365         36
  33.7550         40
  33.7736         51
  33.7922         53
  33.8108         62
  33.8293         48
  33.8479         49
  33.8665         50
  33.8851         49
  33.9036         51
  33.9222         58
  33.9408         58
  33.9594         73
  33.9779         48
  33.9965         73
  34.0151         64
  34.0337         54
  34.0522         61
  34.0708         64
  34.0894         61
  34.1080         48
  34.1265         61
  34.1451         45
  34.1637         67
  34.1823         57
  34.2008         54
  34.2194         69
  34.2380         47
  34.2566         47
  34.2751         48
  34.2937         55
  34.3123         41
  34.3309         48
  34.3494         65
  34.3680         70
  34.3866         48
  34.4052         48
  34.4238         48
  34.4423         64
  34.4609         55
  34.4795         54
  34.4981         57
  34.5166         59
  34.5352         67
  34.5538         66
  34.5724         66
  34.5909         73
  34.6095         62
  34.6281         60
  34.6467         74
  34.6652         58
  34.6838         62
  34.7024         73
  34.7210         82
  34.7395         80
  34.7581         79
  34.7767         64
  34.7953         72
  34.8138         70
  34.8324         61
  34.8510         74
  34.8696         63
  34.8881         58
  34.9067         66
  34.9253         53
  34.9439         64
  34.9624         55
  34.9810         50
  34.9996         72
  35.0182         64
  35.0367         43
  35.0553         63
  35.0739         51
  35.0925         60
  35.1110         53
  35.1296         56
  35.1482         37
  35.1668         59
  35.1854         52
  35.2039         44
  35.2225         54
  35.2411         52
  35.2597         41
  35.2782         57
  35.2968         47
  35.3154         43
  35.3340         59
  35.3525         51
  35.3711         48
  35.3897         56
  35.4083         51
  35.4268         58
  35.4454         51
  35.4640         47
  35.4826         71
  35.5011         48
  35.5197         57
  35.5383         56
  35.5569         53
  35.5754         56
  35.5940         49
  35.6126         60
  35.6312         44
  35.6497         45
  35.6683         49
  35.6869         43
  35.7055         50
  35.7240         69
  35.7426         56
  35.7612         57
  35.7798         43
  35.7983         58
  35.8169         45
  35.8355         51
  35.8541         43
  35.8726         45
  35.8912         52
  35.9098         47
  35.9284         40
  35.9469         48
  35.9655         46
  35.9841         42
  36.0027         38
  36.0213         44
  36.0398         50
  36.0584         40
  36.0770         51
  36.0956         68
  36.1141         46
  36.1327         47
  36.1513         43
  36.1699         52
  36.1884         54
  36.2070         37
  36.2256         46
  36.2442         45
  36.2627         48
  36.2813         59
  36.2999         34
  36.3185         43
  36.3370         49
  36.3556         41
  36.3742         46
  36.3928         56
  36.4113         39
  36.4299         43
  36.4485         44
  36.4671         42
  36.4856         46
  36.5042         43
  36.5228         50
  36.5414         51
  36.5599         46
  36.5785         36
  36.5971         39
  36.6157         57
  36.6342         47
  36.6528         64
  36.6714         37
  36.6900         43
  36.7085         29
  36.7271         50
  36.7457         47
  36.7643         53
  36.7829         45
  36.8014         52
  36.8200         45
  36.8386         40
  36.8572         46
  36.8757         36
  36.8943         49
  36.9129         51
  36.9315         47
  36.9500         42
  36.9686         39
  36.9872         43
  37.0058         49
  37.0243         47
  37.0429         39
  37.0615         35
  37.0801         42
  37.0986         50
  37.1172         44
  37.1358         57
  37.1544         47
  37.1729         50
  37.1915         40
  37.2101         37
  37.2287         50
  37.2472         54
  37.2658         42
  37.2844         30
  37.3030         45
  37.3215         39
  37.3401         50
  37.3587         59
  37.3773         68
  37.3958         64
  37.4144         79
  37.4330         74
  37.4516         62
  37.4701         44
  37.4887         50
  37.5073         66
  37.5259         68
  37.5445         63
  37.5630         68
  37.5816         55
  37.6002         52
  37.6188         42
  37.6373         48
  37.6559         48
  37.6745         54
  37.6931         40
  37.7116         41
  37.7302         34
  37.7488         40
  37.7674         41
  37.7859         45
  37.8045         53
  37.8231         37
  37.8417         48
  37.8602         51
  37.8788         33
  37.8974         42
  37.9160         38
  37.9345         33
  37.9531         52
  37.9717         35
  37.9903         43
  38.0088         44
  38.0274         34
  38.0460         41
  38.0646         43
  38.0831         37
  38.1017         41
  38.1203         46
  38.1389         52
  38.1574         41
  38.1760         41
  38.1946         44
  38.2132         36
  38.2317         33
  38.2503         39
  38.2689         32
  38.2875         38
  38.3061         28
  38.3246         45
  38.3432         35
  38.3618         51
  38.3804         37
  38.3989         33
  38.4175         31
  38.4361         37
  38.4547         44
  38.4732         32
  38.4918         36
  38.5104         45
  38.5290         33
  38.5475         43
  38.5661         40
  38.5847         48
  38.6033         31
  38.6218         38
  38.6404         34
  38.6590         38
  38.6776         53
  38.6961         49
  38.7147         50
  38.7333         46
  38.7519         35
  38.7704         35
  38.7890         39
  38.8076         46
  38.8262         34
  38.8447         47
  38.8633         52
  38.8819         41
  38.9005         47
  38.9190         47
  38.9376         28
  38.9562         42
  38.9748         43
  38.9933         38
  39.0119         39
  39.0305         53
  39.0491         36
  39.0677         35
  39.0862         47
  39.1048         46
  39.1234         50
  39.1420         49
  39.1605         43
  39.1791         40
  39.1977         43
  39.2163         49
  39.2348         35
  39.2534         36
  39.2720         35
  39.2906         46
  39.3091         32
  39.3277         35
  39.3463         36
  39.3649         24
  39.3834         35
  39.4020         37
  39.4206         36
  39.4392         35
  39.4577         36
  39.4763         40
  39.4949         39
  39.5135         34
  39.5320         51
  39.5506         33
  39.5692         42
  39.5878         39
  39.6063         46
  39.6249         39
  39.6435         34
  39.6621         36
  39.6806         38
  39.6992         38
  39.7178         41
  39.7364         42
  39.7549         38
  39.7735         39
  39.7921         41
  39.8107         31
  39.8293         37
  39.8478         30
  39.8664         39
  39.8850         37
  39.9036         34
  39.9221         30
  39.9407         40
  39.9593         38
  39.9779         48
  39.9964         35
  40.0150         43
  40.0336         35
  40.0522         33
  40.0707         54
  40.0893         41
  40.1079         42
  40.1265         32
  40.1450         32
  40.1636         43
  40.1822         46
  40.2008         34
  40.2193         33
  40.2379         42
  40.2565         45
  40.2751         38
  40.2936         44
  40.3122         41
  40.3308         32
  40.3494         32
  40.3679         28
  40.3865         34
  40.4051         33
  40.4237         41
  40.4422         46
  40.4608         42
  40.4794         38
  40.4980         31
  40.5165         38
  40.5351         42
  40.5537         41
  40.5723         39
  40.5908         32
  40.6094         47
  40.6280         39
  40.6466         37
  40.6652         46
  40.6837         53
  40.7023         24
  40.7209         38
  40.7395         53
  40.7580         42
  40.7766         29
  40.7952         36
  40.8138         46
  40.8323         39
  40.8509         38
  40.8695         41
  40.8881         41
  40.9066         39
  40.9252         43
  40.9438         35
  40.9624         38
  40.9809         39
  40.9995         35
  41.0181         44
  41.0367         31
  41.0552         36
  41.0738         43
  41.0924         52
  41.1110         32
  41.1295         39
  41.1481         32
  41.1667         34
  41.1853         34
  41.2038         46
  41.2224         44
  41.2410         45
  41.2596         39
  41.2781         35
  41.2967         41
  41.3153         23
  41.3339         35
  41.3524         30
  41.3710         38
  41.3896         34
  41.4082         42
  41.4268         38
  41.4453         35
  41.4639         33
  41.4825         35
  41.5011         42
  41.5196         26
  41.5382         41
  41.5568         35
  41.5754         40
  41.5939         33
  41.6125         34
  41.6311         38
  41.6497         32
  41.6682         42
  41.6868         33
  41.7054         35
  41.7240         31
  41.7425         35
  41.7611         34
  41.7797         29
  41.7983         31
  41.8168         38
  41.8354         33
  41.8540         45
  41.8726         45
  41.8911         43
  41.9097         33
  41.9283         34
  41.9469         33
  41.9654         26
  41.9840         28
  42.0026         42
  42.0212         33
  42.0397         28
  42.0583         38
  42.0769         41
  42.0955         31
  42.1140         37
  42.1326         33
  42.1512         44
  42.1698         31
  42.1884         43
  42.2069         35
  42.2255         35
  42.2441         37
  42.2627         31
  42.2812         30
  42.2998         31
  42.3184         32
  42.3370         44
  42.3555         37
  42.3741         28
  42.3927         29
  42.4113         39
  42.4298         35
  42.4484         26
  42.4670         27
  42.4856         31
  42.5041         34
  42.5227         39
  42.5413         36
  42.5599         43
  42.5784         39
  42.5970         32
  42.6156         35
  42.6342         33
  42.6527         39
  42.6713         47
  42.6899         38
  42.7085         38
  42.7270         39
  42.7456         31
  42.7642         37
  42.7828         28
  42.8013         38
  42.8199         37
  42.8385         34
  42.8571         44
  42.8756         32
  42.8942         48
  42.9128         46
  42.9314         36
  42.9500         29
  42.9685         30
  42.9871         31
  43.0057         31
  43.0243         28
  43.0428         36
  43.0614         38
  43.0800         34
  43.0986         43
  43.1171         50
  43.1357         31
  43.1543         38
  43.1729         40
  43.1914         39
  43.2100         39
  43.2286         48
  43.2472         52
  43.2657         46
  43.2843         46
  43.3029         42
  43.3215         38
  43.3400         40
  43.3586         49
  43.3772         34
  43.3958         44
  43.4143         43
  43.4329         42
  43.4515         43
  43.4701         51
  43.4886         65
  43.5072         68
  43.5258         37
  43.5444         40
  43.5629         35
  43.5815         48
  43.6001         39
  43.6187         38
  43.6372         49
  43.6558         49
  43.6744         39
  43.6930         37
  43.7116         32
  43.7301         39
  43.7487         33
  43.7673         35
  43.7859         45
  43.8044         37
  43.8230         32
  43.8416         37
  43.8602         33
  43.8787         40
  43.8973         34
  43.9159         47
  43.9345         48
  43.9530         39
  43.9716         34
  43.9902         42
  44.0088         37
  44.0273         30
  44.0459         36
  44.0645         41
  44.0831         30
  44.1016         46
  44.1202         39
  44.1388         33
  44.1574         36
  44.1759         35
  44.1945         45
  44.2131         24
  44.2317         34
  44.2502         37
  44.2688         47
  44.2874         42
  44.3060         32
  44.3245         37
  44.3431         34
  44.3617         32
  44.3803         39
  44.3988         40
  44.4174         30
  44.4360         47
  44.4546         31
  44.4732         41
  44.4917         35
  44.5103         41
  44.5289         44
  44.5475         46
  44.5660         48
  44.5846         34
  44.6032         49
  44.6218         46
  44.6403         39
  44.6589         37
  44.6775         53
  44.6961         41
  44.7146         36
  44.7332         27
  44.7518         36
  44.7704         28
  44.7889         36
  44.8075         35
  44.8261         36
  44.8447         37
  44.8632         32
  44.8818         36
  44.9004         41
  44.9190         37
  44.9375         40
  44.9561         30
  44.9747         34
  44.9933         46
  45.0118         28
  45.0304         33
  45.0490         36
  45.0676         25
  45.0861         29
  45.1047         33
  45.1233         30
  45.1419         34
  45.1604         31
  45.1790         43
  45.1976         34
  45.2162         39
  45.2347         37
  45.2533         39
  45.2719         35
  45.2905         29
  45.3091         32
  45.3276         46
  45.3462         35
  45.3648         27
  45.3834         37
  45.4019         38
  45.4205         31
  45.4391         46
  45.4577         41
  45.4762         35
  45.4948         38
  45.5134         31
  45.5320         41
  45.5505         34
  45.5691         39
  45.5877         38
  45.6063         36
  45.6248         45
  45.6434         37
  45.6620         25
  45.6806         35
  45.6991         28
  45.7177         31
  45.7363         27
  45.7549         28
  45.7734         43
  45.7920         29
  45.8106         29
  45.8292         44
  45.8477         42
  45.8663         28
  45.8849         24
  45.9035         34
  45.9220         32
  45.9406         24
  45.9592         32
  45.9778         34
  45.9963         30
  46.0149         35
  46.0335         41
  46.0521         31
  46.0707         37
  46.0892         43
  46.1078         36
  46.1264         35
  46.1450         31
  46.1635         24
  46.1821         31
  46.2007         33
  46.2193         34
  46.2378         37
  46.2564         39
  46.2750         37
  46.2936         37
  46.3121         35
  46.3307         34
  46.3493         30
  46.3679         27
  46.3864         29
  46.4050         28
  46.4236         39
  46.4422         45
  46.4607         29
  46.4793         37
  46.4979         35
  46.5165         28
  46.5350         41
  46.5536         30
  46.5722         46
  46.5908         37
  46.6093         27
  46.6279         30
  46.6465         34
  46.6651         33
  46.6836         37
  46.7022         33
  46.7208         37
  46.7394         30
  46.7579         30
  46.7765         30
  46.7951         33
  46.8137         32
  46.8323         26
  46.8508         31
  46.8694         39
  46.8880         27
  46.9066         30
  46.9251         31
  46.9437         30
  46.9623         30
  46.9809         25
  46.9994         31
  47.0180         34
  47.0366         23
  47.0552         40
  47.0737         35
  47.0923         29
  47.1109         39
  47.1295         32
  47.1480         26
  47.1666         40
  47.1852         26
  47.2038         26
  47.2223         37
  47.2409         25
  47.2595         24
  47.2781         36
  47.2966         28
  47.3152         33
  47.3338         39
  47.3524         24
  47.3709         31
  47.3895         33
  47.4081         28
  47.4267         32
  47.4452         27
  47.4638         24
  47.4824         28
  47.5010         47
  47.5195         32
  47.5381         40
  47.5567         29
  47.5753         44
  47.5939         26
  47.6124         26
  47.6310         26
  47.6496         33
  47.6682         27
  47.6867         27
  47.7053         27
  47.7239         32
  47.7425         26
  47.7610         29
  47.7796         24
  47.7982         20
  47.8168         29
  47.8353         32
  47.8539         29
  47.8725         27
  47.8911         38
  47.9096         37
  47.9282         34
  47.9468         34
  47.9654         44
  47.9839         25
  48.0025         30
  48.0211         33
  48.0397         41
  48.0582         31
  48.0768         37
  48.0954         31
  48.1140         31
  48.1325         31
  48.1511         31
  48.1697         29
  48.1883         35
  48.2068         45
  48.2254         41
  48.2440         37
  48.2626         31
  48.2811         26
  48.2997         28
  48.3183         32
  48.3369         21
  48.3555         30
  48.3740         33
  48.3926         26
  48.4112         33
  48.4298         26
  48.4483         26
  48.4669         32
  48.4855         40
  48.5041         30
  48.5226         32
  48.5412         28
  48.5598         37
  48.5784         31
  48.5969         28
  48.6155         43
  48.6341         27
  48.6527         29
  48.6712         29
  48.6898         37
  48.7084         32
  48.7270         35
  48.7455         37
  48.7641         29
  48.7827         43
  48.8013         38
  48.8198         32
  48.8384         31
  48.8570         33
  48.8756         35
  48.8941         42
  48.9127         61
  48.9313         61
  48.9499         49
  48.9684         38
  48.9870         46
  49.0056         37
  49.0242         31
  49.0427         30
  49.0613         33
  49.0799         52
  49.0985         48
  49.1171         44
  49.1356         42
  49.1542         43
  49.1728         29
  49.1914         35
  49.2099         37
  49.2285         29
  49.2471         25
  49.2657         30
  49.2842         29
  49.3028         32
  49.3214         24
  49.3400         27
  49.3585         22
  49.3771         37
  49.3957         28
  49.4143         21
  49.4328         28
  49.4514         25
  49.4700         39
  49.4886         33
  49.5071         31
  49.5257         25
  49.5443         32
  49.5629         23
  49.5814         24
  49.6000         40
  49.6186         42
  49.6372         24
  49.6557         37
  49.6743         27
  49.6929         33
  49.7115         25
  49.7300         34
  49.7486         24
  49.7672         28
  49.7858         23
  49.8043         35
  49.8229         31
  49.8415         28
  49.8601         27
  49.8786         30
  49.8972         34
  49.9158         28
  49.9344         31
  49.9530         30
  49.9715         43
  49.9901         32
  50.0087         45
  50.0273         24
  50.0458         24
  50.0644         26
  50.0830         31
  50.1016         26
  50.1201         30
  50.1387         36
  50.1573         42
  50.1759         41
  50.1944         32
  50.2130         26
  50.2316         28
  50.2502         23
  50.2687         27
  50.2873         26
  50.3059         34
  50.3245         32
  50.3430         27
  50.3616         26
  50.3802         35
  50.3988         28
  50.4173         34
  50.4359         26
  50.4545         27
  50.4731         33
  50.4916         17
  50.5102         36
  50.5288         39
  50.5474         30
  50.5659         29
  50.5845         26
  50.6031         28
  50.6217         33
  50.6402         44
  50.6588         28
  50.6774         27
  50.6960         37
  50.7146         27
  50.7331         35
  50.7517         26
  50.7703         35
  50.7889         25
  50.8074         26
  50.8260         31
  50.8446         34
  50.8632         32
  50.8817         20
  50.9003         23
  50.9189         24
  50.9375         25
  50.9560         31
  50.9746         35
  50.9932         28
  51.0118         25
  51.0303         36
  51.0489         27
  51.0675         28
  51.0861         27
  51.1046         36
  51.1232         25
  51.1418         27
  51.1604         27
  51.1789         34
  51.1975         31
  51.2161         24
  51.2347         28
  51.2532         31
  51.2718         32
  51.2904         27
  51.3090         35
  51.3275         29
  51.3461         29
  51.3647         37
  51.3833         34
  51.4018         18
  51.4204         31
  51.4390         34
  51.4576         44
  51.4762         30
  51.4947         34
  51.5133         32
  51.5319         29
  51.5505         33
  51.5690         25
  51.5876         35
  51.6062         28
  51.6248         39
  51.6433         30
  51.6619         28
  51.6805         31
  51.6991         29
  51.7176         35
  51.7362         35
  51.7548         30
  51.7734         34
  51.7919         34
  51.8105         38
  51.8291         30
  51.8477         27
  51.8662         35
  51.8848         34
  51.9034         33
  51.9220         37
  51.9405         24
  51.9591         29
  51.9777         36
  51.9963         32
  52.0148         33
  52.0334         23
  52.0520         34
  52.0706         20
  52.0891         26
  52.1077         28
  52.1263         25
  52.1449         19
  52.1634         21
  52.1820         30
  52.2006         28
  52.2192         26
  52.2378         30
  52.2563         21
  52.2749         33
  52.2935         27
  52.3121         27
  52.3306         30
  52.3492         22
  52.3678         27
  52.3864         30
  52.4049         29
  52.4235         32
  52.4421         29
  52.4607         31
  52.4792         24
  52.4978         36
  52.5164         24
  52.5350         32
  52.5535         24
  52.5721         39
  52.5907         26
  52.6093         22
  52.6278         43
  52.6464         25
  52.6650         22
  52.6836         30
  52.7021         17
  52.7207         27
  52.7393         30
  52.7579         34
  52.7764         26
  52.7950         27
  52.8136         31
  52.8322         29
  52.8507         43
  52.8693         29
  52.8879         38
  52.9065         34
  52.9250         23
  52.9436         26
  52.9622         29
  52.9808         27
  52.9994         28
  53.0179         33
  53.0365         27
  53.0551         23
  53.0737         37
  53.0922         30
  53.1108         21
  53.1294         25
  53.1480         22
  53.1665         34
  53.1851         26
  53.2037         22
  53.2223         38
  53.2408         29
  53.2594         23
  53.2780         33
  53.2966         36
  53.3151         33
  53.3337         24
  53.3523         27
  53.3709         24
  53.3894         27
  53.4080         25
  53.4266         27
  53.4452         22
  53.4637         30
  53.4823         33
  53.5009         26
  53.5195         37
  53.5380         27
  53.5566         26
  53.5752         18
  53.5938         28
  53.6123         34
  53.6309         29
  53.6495         26
  53.6681         33
  53.6866         43
  53.7052         27
  53.7238         27
  53.7424         31
  53.7610         32
  53.7795         27
  53.7981         25
  53.8167         27
  53.8353         33
  53.8538         34
  53.8724         33
  53.8910         37
  53.9096         25
  53.9281         33
  53.9467         36
  53.9653         47
  53.9839         29
  54.0024         34
  54.0210         39
  54.0396         33
  54.0582         32
  54.0767         39
  54.0953         34
  54.1139         41
  54.1325         31
  54.1510         41
  54.1696         28
  54.1882         32
  54.2068         25
  54.2253         36
  54.2439         31
  54.2625         38
  54.2811         31
  54.2996         32
  54.3182         31
  54.3368         31
  54.3554         22
  54.3739         38
  54.3925         37
  54.4111         28
  54.4297         27
  54.4482         27
  54.4668         38
  54.4854         27
  54.5040         33
  54.5225         30
  54.5411         24
  54.5597         32
  54.5783         34
  54.5969         28
  54.6154         31
  54.6340         24
  54.6526         33
  54.6712         28
  54.6897         30
  54.7083         25
  54.7269         32
  54.7455         24
  54.7640         27
  54.7826         31
  54.8012         24
  54.8198         30
  54.8383         18
  54.8569         23
  54.8755         25
  54.8941         36
  54.9126         30
  54.9312         27
  54.9498         26
  54.9684         24
  54.9869         24
  55.0055         27
  55.0241         29
  55.0427         21
  55.0612         31
  55.0798         33
  55.0984         28
  55.1170         33
  55.1355         38
  55.1541         25
  55.1727         38
  55.1913         23
  55.2098         31
  55.2284         24
  55.2470         28
  55.2656         27
  55.2841         31
  55.3027         26
  55.3213         23
  55.3399         28
  55.3585         25
  55.3770         29
  55.3956         27
  55.4142         34
  55.4328         30
  55.4513         37
  55.4699         37
  55.4885         27
  55.5071         22
  55.5256         27
  55.5442         22
  55.5628         31
  55.5814         32
  55.5999         29
  55.6185         30
  55.6371         28
  55.6557         28
  55.6742         21
  55.6928         30
  55.7114         31
  55.7300         32
  55.7485         27
  55.7671         23
  55.7857         33
  55.8043         24
  55.8228         25
  55.8414         31
  55.8600         43
  55.8786         25
  55.8971         19
  55.9157         22
  55.9343         35
  55.9529         20
  55.9714         35
  55.9900         25
  56.0086         23
  56.0272         35
  56.0457         33
  56.0643         26
  56.0829         40
  56.1015         30
  56.1201         27
  56.1386         24
  56.1572         21
  56.1758         27
  56.1944         32
  56.2129         32
  56.2315         28
  56.2501         32
  56.2687         31
  56.2872         44
  56.3058         32
  56.3244         29
  56.3430         25
  56.3615         39
  56.3801         32
  56.3987         30
  56.4173         26
  56.4358         27
  56.4544         28
  56.4730         29
  56.4916         38
  56.5101         30
  56.5287         31
  56.5473         17
  56.5659         23
  56.5844         26
  56.6030         24
  56.6216         28
  56.6402         22
  56.6587         25
  56.6773         30
  56.6959         35
  56.7145         30
  56.7330         29
  56.7516         32
  56.7702         35
  56.7888         26
  56.8073         33
  56.8259         33
  56.8445         28
  56.8631         27
  56.8817         37
  56.9002         31
  56.9188         28
  56.9374         28
  56.9560         20
  56.9745         23
  56.9931         23
  57.0117         25
  57.0303         24
  57.0488         32
  57.0674         24
  57.0860         21
  57.1046         33
  57.1231         27
  57.1417         17
  57.1603         28
  57.1789         34
  57.1974         26
  57.2160         31
  57.2346         29
  57.2532         16
  57.2717         29
  57.2903         21
  57.3089         22
  57.3275         29
  57.3460         31
  57.3646         35
  57.3832         28
  57.4018         43
  57.4203         25
  57.4389         31
  57.4575         29
  57.4761         29
  57.4946         22
  57.5132         22
  57.5318         23
  57.5504         33
  57.5689         30
  57.5875         19
  57.6061         37
  57.6247         30
  57.6433         24
  57.6618         26
  57.6804         27
  57.6990         28
  57.7176         34
  57.7361         29
  57.7547         25
  57.7733         31
  57.7919         31
  57.8104         33
  57.8290         30
  57.8476         30
  57.8662         23
  57.8847         29
  57.9033         29
  57.9219         18
  57.9405         24
  57.9590         34
  57.9776         38
  57.9962         30
  58.0148         22
  58.0333         27
  58.0519         26
  58.0705         31
  58.0891         24
  58.1076         20
  58.1262         23
  58.1448         34
  58.1634         32
  58.1819         37
  58.2005         32
  58.2191         26
  58.2377         31
  58.2562         20
  58.2748         32
  58.2934         35
  58.3120         20
  58.3305         25
  58.3491         18
  58.3677         31
  58.3863         27
  58.4049         24
  58.4234         19
  58.4420         24
  58.4606         31
  58.4792         33
  58.4977         27
  58.5163         36
  58.5349         25
  58.5535         23
  58.5720         23
  58.5906         28
  58.6092         29
  58.6278         35
  58.6463         35
  58.6649         26
  58.6835         33
  58.7021         24
  58.7206         23
  58.7392         28
  58.7578         27
  58.7764         21
  58.7949         24
  58.8135         25
  58.8321         23
  58.8507         20
  58.8692         29
  58.8878         31
  58.9064         31
  58.9250         27
  58.9435         24
  58.9621         30
  58.9807         27
  58.9993         21
  59.0178         24
  59.0364         30
  59.0550         22
  59.0736         34
  59.0921         30
  59.1107         31
  59.1293         25
  59.1479         30
  59.1664         29
  59.1850         21
  59.2036         29
  59.2222         37
  59.2408         17
  59.2593         31
  59.2779         15
  59.2965         24
  59.3151         28
  59.3336         26
  59.3522         34
  59.3708         27
  59.3894         22
  59.4079         24
  59.4265         18
  59.4451         23
  59.4637         32
  59.4822         29
  59.5008         27
  59.5194         27
  59.5380         26
  59.5565         25
  59.5751         24
  59.5937         30
  59.6123         32
  59.6308         24
  59.6494         25
  59.6680         28
  59.6866         17
  59.7051         28
  59.7237         21
  59.7423         26
  59.7609         27
  59.7794         26
  59.7980         28
  59.8166         23
  59.8352         24
  59.8537         21
  59.8723         26
  59.8909         35
  59.9095         26
  59.9280         33
  59.9466         26
  59.9652         26
  59.9838         31
  60.0024         19
