; (content of file Y:\Sam\Apurva-07-20-2022\puck4\ML_20220718_53_SJD_4_LaB6-2min.raw)
_FILEVERSION = 3
_SAMPLE = ML_20220718_53_SJD_4_LaB6-2min
_+SAMPLE = 
_SITE = USA
_USER = Administrator
_GONIOMETER_CODE = 20
; Goniometer : D8 theta/2theta, stage : Unknown
_ATTACHMENTS_CODE = 0
_GONIOMETER_RADIUS = 200.5
_FIXED_DIVSLIT = 0.6
_FIXED_SAMPLESLIT = 0
_SOLLER_SLITS = 2
_FIXED_DETSLIT = 9.55
_MONOCHROMATOR = 0
; Incident beam monochromator : None
_SOLLER_SLITS_2 = N
_THIN_FILM = N
_BETA_FILTER = Y
_FIXED_ANTISLIT = 5.89
_ANALYZER_CODE = 0
; Received beam analyzer : None
_DATEMEASURED = "26-Jul-2022 12:34:49"
_WL_UNIT = A
_WL1 = 1.5406
_WL2 = 1.54439
_WL3 = 1.39222
_WLRATIO = 0.5
_ANODE = Cu
_V4_INF_CREATOR = XRDWizard
_V4_INF_CREATOR_VERSION = V2.9.0.22
_V4_INF_WIZARD_VERSION = V2.9.0.22
_V4_INF_WIZARD_ADDINS = V2.9.0.22
_V4_INF_WIZARD_DOCTYPE = XRD
_V4_INF_OSUSER = McQueenLab
_V4_INF_USER = Administrator
_V4_INF_SITE = USA
_V4_INF_SAMPLEID = ML_20220718_53_SJD_4_LaB6-2min

; Data for range 1
_DRIVE = COUPLED
_STEPTIME = 5.64
_STEPSIZE = 0.0185756
_STEPMODE = C
_START = 5
_THETA = 2.5
_2THETA = 5
_KHI = 0
_PHI = 0
_X = 0
_Y = 0
_Z = 0
_DETECTOR = 5
; Detector type : Unknown
_DETECTORSLIT = unkn
_AUX1 = 0
_AUX2 = 0
_AUX3 = 0
_TIMESTARTED = 15
_TEMP_RATE = -1
_TEMP_DELAY = -1
_KV = 40
_MA = 40
_RANGE_WL = 1.5406
_3DPLANE = 0
_V4_ADDITIONALDETECTOR = 257
_V4_PSD2THETA = 3.373
_V4_PSDCHANNEL1 = 0
_V4_PSDAPERTURE = 12.68
_V4_PSDTYPE = 5
_V4_PSDFIXED = 0
_V4_COUNTERS_MASK = 4096
_V4_DRIVES_MASK = 0
_V4_ENCODERS_MASK = 0
_2THETACOUNTS = 1
; 2THETA  PSD
   5.0000        116
   5.0186        121
   5.0372        131
   5.0557        113
   5.0743        110
   5.0929        122
   5.1115        118
   5.1300        137
   5.1486        125
   5.1672         99
   5.1858        142
   5.2043        116
   5.2229        130
   5.2415        115
   5.2601        119
   5.2786        111
   5.2972         99
   5.3158        105
   5.3344        116
   5.3529        126
   5.3715        128
   5.3901        122
   5.4087        127
   5.4272        121
   5.4458        134
   5.4644         95
   5.4830        109
   5.5015        111
   5.5201        113
   5.5387         99
   5.5573        103
   5.5758        108
   5.5944        102
   5.6130        119
   5.6316         95
   5.6501        107
   5.6687        100
   5.6873        119
   5.7059        122
   5.7244        101
   5.7430        100
   5.7616        106
   5.7802        100
   5.7988        104
   5.8173        101
   5.8359         91
   5.8545        104
   5.8731        111
   5.8916        101
   5.9102         99
   5.9288         94
   5.9474         84
   5.9659        101
   5.9845        113
   6.0031        121
   6.0217         94
   6.0402         75
   6.0588        112
   6.0774        100
   6.0960         97
   6.1145         94
   6.1331        112
   6.1517         85
   6.1703         95
   6.1888         90
   6.2074         91
   6.2260         78
   6.2446        100
   6.2631        109
   6.2817         85
   6.3003         94
   6.3189         94
   6.3374         83
   6.3560         99
   6.3746        100
   6.3932         94
   6.4117        100
   6.4303         96
   6.4489         98
   6.4675         86
   6.4860         80
   6.5046         83
   6.5232         82
   6.5418         93
   6.5604         83
   6.5789         80
   6.5975         70
   6.6161         86
   6.6347         84
   6.6532         95
   6.6718         62
   6.6904         94
   6.7090         88
   6.7275         89
   6.7461         89
   6.7647         94
   6.7833         74
   6.8018         72
   6.8204         78
   6.8390         67
   6.8576         94
   6.8761         64
   6.8947         95
   6.9133         88
   6.9319         71
   6.9504         77
   6.9690         67
   6.9876         84
   7.0062         77
   7.0247         96
   7.0433         77
   7.0619         99
   7.0805         95
   7.0990         87
   7.1176         81
   7.1362         80
   7.1548         79
   7.1733         64
   7.1919         84
   7.2105         84
   7.2291         76
   7.2476         69
   7.2662         64
   7.2848         88
   7.3034         87
   7.3220         91
   7.3405         83
   7.3591         81
   7.3777         75
   7.3963         86
   7.4148         72
   7.4334         66
   7.4520         93
   7.4706         80
   7.4891         88
   7.5077         72
   7.5263         72
   7.5449         86
   7.5634         95
   7.5820         88
   7.6006         80
   7.6192         96
   7.6377         89
   7.6563         88
   7.6749         80
   7.6935         93
   7.7120         81
   7.7306        104
   7.7492         81
   7.7678         98
   7.7863        105
   7.8049         94
   7.8235         91
   7.8421         97
   7.8606         85
   7.8792         86
   7.8978         90
   7.9164         85
   7.9349         97
   7.9535         80
   7.9721        107
   7.9907         96
   8.0092        114
   8.0278         96
   8.0464         97
   8.0650         87
   8.0835         92
   8.1021        100
   8.1207         96
   8.1393         82
   8.1579         94
   8.1764         96
   8.1950         95
   8.2136         93
   8.2322         92
   8.2507         85
   8.2693         99
   8.2879         87
   8.3065         97
   8.3250        109
   8.3436         87
   8.3622         87
   8.3808        114
   8.3993         83
   8.4179        100
   8.4365         86
   8.4551        110
   8.4736         89
   8.4922         93
   8.5108        103
   8.5294         90
   8.5479        107
   8.5665         98
   8.5851        103
   8.6037         94
   8.6222         90
   8.6408        101
   8.6594         97
   8.6780        109
   8.6965         95
   8.7151         88
   8.7337        118
   8.7523         88
   8.7708         99
   8.7894        112
   8.8080        105
   8.8266         99
   8.8451        109
   8.8637         95
   8.8823        112
   8.9009        103
   8.9195         98
   8.9380        108
   8.9566        113
   8.9752        109
   8.9938        110
   9.0123        122
   9.0309        118
   9.0495        108
   9.0681         96
   9.0866        101
   9.1052        109
   9.1238         99
   9.1424        104
   9.1609        107
   9.1795        122
   9.1981        126
   9.2167        117
   9.2352        110
   9.2538        119
   9.2724        117
   9.2910         97
   9.3095         94
   9.3281        121
   9.3467        118
   9.3653        101
   9.3838        123
   9.4024        111
   9.4210        106
   9.4396        103
   9.4581         99
   9.4767        126
   9.4953         86
   9.5139         91
   9.5324        124
   9.5510        118
   9.5696        126
   9.5882        116
   9.6067        104
   9.6253        113
   9.6439        113
   9.6625         91
   9.6811        131
   9.6996        124
   9.7182        140
   9.7368        108
   9.7554        111
   9.7739        121
   9.7925        109
   9.8111        110
   9.8297        117
   9.8482        112
   9.8668         97
   9.8854        127
   9.9040        112
   9.9225        121
   9.9411        122
   9.9597        106
   9.9783        109
   9.9968        110
  10.0154        120
  10.0340        123
  10.0526        119
  10.0711         97
  10.0897        113
  10.1083        104
  10.1269        119
  10.1454        137
  10.1640        143
  10.1826        125
  10.2012        128
  10.2197        124
  10.2383        113
  10.2569        124
  10.2755        129
  10.2940        126
  10.3126        119
  10.3312        118
  10.3498        112
  10.3683        144
  10.3869        122
  10.4055        129
  10.4241        119
  10.4427        108
  10.4612        132
  10.4798        121
  10.4984        129
  10.5170        128
  10.5355        115
  10.5541        120
  10.5727        107
  10.5913        133
  10.6098        107
  10.6284        121
  10.6470         99
  10.6656        132
  10.6841        107
  10.7027        117
  10.7213        118
  10.7399        148
  10.7584        114
  10.7770        116
  10.7956        114
  10.8142        116
  10.8327        107
  10.8513        100
  10.8699        114
  10.8885        115
  10.9070        118
  10.9256        112
  10.9442        122
  10.9628        126
  10.9813         98
  10.9999        117
  11.0185        138
  11.0371        110
  11.0556        111
  11.0742        138
  11.0928        117
  11.1114        115
  11.1299         88
  11.1485        114
  11.1671        114
  11.1857        102
  11.2043        141
  11.2228        103
  11.2414        121
  11.2600        100
  11.2786        117
  11.2971        133
  11.3157        138
  11.3343        117
  11.3529        137
  11.3714        120
  11.3900        123
  11.4086        124
  11.4272        116
  11.4457        102
  11.4643        115
  11.4829        104
  11.5015        102
  11.5200        103
  11.5386        120
  11.5572        121
  11.5758        117
  11.5943        125
  11.6129        106
  11.6315        102
  11.6501        110
  11.6686        115
  11.6872        117
  11.7058        129
  11.7244        114
  11.7429        110
  11.7615        102
  11.7801        119
  11.7987        111
  11.8172        107
  11.8358         95
  11.8544        146
  11.8730        107
  11.8915        119
  11.9101        109
  11.9287        109
  11.9473        106
  11.9659        118
  11.9844        119
  12.0030        100
  12.0216        111
  12.0402        114
  12.0587        106
  12.0773        106
  12.0959        112
  12.1145        101
  12.1330        112
  12.1516        101
  12.1702         98
  12.1888        108
  12.2073        114
  12.2259        125
  12.2445        115
  12.2631        126
  12.2816        116
  12.3002        104
  12.3188        119
  12.3374        128
  12.3559        107
  12.3745         99
  12.3931        105
  12.4117        102
  12.4302        104
  12.4488        110
  12.4674        111
  12.4860        111
  12.5045        112
  12.5231        104
  12.5417        118
  12.5603        103
  12.5788        112
  12.5974        107
  12.6160        107
  12.6346        102
  12.6531        104
  12.6717         94
  12.6903        112
  12.7089        110
  12.7274         88
  12.7460        126
  12.7646        104
  12.7832        115
  12.8018         92
  12.8203        104
  12.8389        101
  12.8575        107
  12.8761        121
  12.8946         84
  12.9132         92
  12.9318         94
  12.9504         99
  12.9689        104
  12.9875        101
  13.0061        115
  13.0247         89
  13.0432        112
  13.0618         98
  13.0804         93
  13.0990        100
  13.1175         85
  13.1361        114
  13.1547         95
  13.1733        102
  13.1918        110
  13.2104        102
  13.2290         94
  13.2476        102
  13.2661         91
  13.2847        126
  13.3033        101
  13.3219         85
  13.3404        100
  13.3590         95
  13.3776        106
  13.3962         91
  13.4147         92
  13.4333        100
  13.4519        103
  13.4705        106
  13.4890         80
  13.5076         96
  13.5262         97
  13.5448         96
  13.5634        107
  13.5819         97
  13.6005         91
  13.6191         96
  13.6377        100
  13.6562         97
  13.6748         90
  13.6934         88
  13.7120         90
  13.7305         98
  13.7491         85
  13.7677         96
  13.7863         85
  13.8048         94
  13.8234         82
  13.8420         73
  13.8606         92
  13.8791         88
  13.8977         99
  13.9163        100
  13.9349         83
  13.9534         90
  13.9720        115
  13.9906         88
  14.0092         77
  14.0277         85
  14.0463         82
  14.0649         95
  14.0835         93
  14.1020         89
  14.1206         96
  14.1392         99
  14.1578         72
  14.1763         85
  14.1949         73
  14.2135         89
  14.2321         95
  14.2506         91
  14.2692         94
  14.2878         79
  14.3064         85
  14.3250         97
  14.3435        101
  14.3621         65
  14.3807         91
  14.3993         86
  14.4178         80
  14.4364         86
  14.4550         89
  14.4736         83
  14.4921         81
  14.5107        100
  14.5293         84
  14.5479         97
  14.5664         96
  14.5850         75
  14.6036         87
  14.6222         88
  14.6407         97
  14.6593         81
  14.6779         82
  14.6965         84
  14.7150         84
  14.7336         68
  14.7522         73
  14.7708         66
  14.7893         62
  14.8079         72
  14.8265         81
  14.8451        100
  14.8636         85
  14.8822         61
  14.9008         99
  14.9194         91
  14.9379         96
  14.9565         93
  14.9751        103
  14.9937         75
  15.0122         88
  15.0308         78
  15.0494         81
  15.0680         85
  15.0866         86
  15.1051         77
  15.1237         86
  15.1423         78
  15.1609         92
  15.1794         97
  15.1980         92
  15.2166         89
  15.2352         90
  15.2537         96
  15.2723         73
  15.2909         84
  15.3095         96
  15.3280        113
  15.3466         89
  15.3652         89
  15.3838         73
  15.4023         85
  15.4209         91
  15.4395         91
  15.4581         67
  15.4766         93
  15.4952         64
  15.5138         72
  15.5324         69
  15.5509        100
  15.5695         93
  15.5881         94
  15.6067         60
  15.6252         71
  15.6438         69
  15.6624         72
  15.6810         81
  15.6995         81
  15.7181         92
  15.7367         83
  15.7553         83
  15.7738         81
  15.7924         76
  15.8110         82
  15.8296         81
  15.8482         81
  15.8667         88
  15.8853         76
  15.9039         91
  15.9225         76
  15.9410         90
  15.9596         67
  15.9782         70
  15.9968         63
  16.0153         91
  16.0339         77
  16.0525         68
  16.0711         94
  16.0896         96
  16.1082         69
  16.1268         86
  16.1454         77
  16.1639         88
  16.1825         83
  16.2011         68
  16.2197         73
  16.2382         74
  16.2568         73
  16.2754         89
  16.2940         82
  16.3125         82
  16.3311         69
  16.3497         75
  16.3683         66
  16.3868         77
  16.4054         84
  16.4240         66
  16.4426         82
  16.4611         80
  16.4797         77
  16.4983         85
  16.5169         64
  16.5354         94
  16.5540         90
  16.5726         78
  16.5912         77
  16.6097         78
  16.6283         86
  16.6469         83
  16.6655         76
  16.6841         84
  16.7026         90
  16.7212         70
  16.7398         82
  16.7584         78
  16.7769         95
  16.7955         70
  16.8141         62
  16.8327         77
  16.8512         94
  16.8698         78
  16.8884         91
  16.9070         72
  16.9255         84
  16.9441         85
  16.9627         72
  16.9813         90
  16.9998         75
  17.0184         85
  17.0370         79
  17.0556         75
  17.0741         75
  17.0927         74
  17.1113         64
  17.1299         96
  17.1484         98
  17.1670         83
  17.1856         71
  17.2042         73
  17.2227         84
  17.2413         85
  17.2599         98
  17.2785         78
  17.2970         68
  17.3156         77
  17.3342         81
  17.3528         68
  17.3713         68
  17.3899         99
  17.4085         89
  17.4271         87
  17.4457         81
  17.4642         76
  17.4828         65
  17.5014         69
  17.5200         74
  17.5385         69
  17.5571         77
  17.5757         79
  17.5943         75
  17.6128         77
  17.6314         75
  17.6500         69
  17.6686         75
  17.6871         74
  17.7057         91
  17.7243         78
  17.7429         81
  17.7614         66
  17.7800         73
  17.7986         66
  17.8172         92
  17.8357         86
  17.8543         76
  17.8729         79
  17.8915         88
  17.9100         62
  17.9286         86
  17.9472        111
  17.9658         77
  17.9843         85
  18.0029         85
  18.0215         82
  18.0401         71
  18.0586         81
  18.0772         80
  18.0958         92
  18.1144         90
  18.1329         55
  18.1515         71
  18.1701        103
  18.1887         82
  18.2073         88
  18.2258         68
  18.2444         88
  18.2630         85
  18.2816         71
  18.3001         70
  18.3187         95
  18.3373         76
  18.3559         95
  18.3744         77
  18.3930         92
  18.4116        101
  18.4302         72
  18.4487         81
  18.4673         73
  18.4859         65
  18.5045         97
  18.5230         79
  18.5416         86
  18.5602         79
  18.5788         93
  18.5973         72
  18.6159         83
  18.6345         96
  18.6531         74
  18.6716         69
  18.6902         73
  18.7088         85
  18.7274         98
  18.7459         89
  18.7645         93
  18.7831         85
  18.8017         84
  18.8202         83
  18.8388         84
  18.8574         74
  18.8760         70
  18.8945         79
  18.9131         96
  18.9317         83
  18.9503         72
  18.9689         77
  18.9874         76
  19.0060         91
  19.0246         85
  19.0432         73
  19.0617         71
  19.0803         74
  19.0989         89
  19.1175         95
  19.1360         72
  19.1546         91
  19.1732         75
  19.1918         87
  19.2103         82
  19.2289         87
  19.2475         72
  19.2661         81
  19.2846         86
  19.3032         99
  19.3218         82
  19.3404         93
  19.3589         95
  19.3775         81
  19.3961         88
  19.4147         94
  19.4332         93
  19.4518         87
  19.4704         69
  19.4890         76
  19.5075         88
  19.5261         74
  19.5447         72
  19.5633         75
  19.5818         91
  19.6004         82
  19.6190         90
  19.6376         72
  19.6561         88
  19.6747         84
  19.6933         83
  19.7119         83
  19.7305         94
  19.7490         85
  19.7676        102
  19.7862         79
  19.8048         84
  19.8233         89
  19.8419         80
  19.8605         94
  19.8791         91
  19.8976         86
  19.9162         86
  19.9348         96
  19.9534        103
  19.9719         87
  19.9905         97
  20.0091         89
  20.0277         94
  20.0462         90
  20.0648        107
  20.0834         87
  20.1020        103
  20.1205         82
  20.1391         87
  20.1577         86
  20.1763        100
  20.1948         85
  20.2134         85
  20.2320         95
  20.2506         78
  20.2691        107
  20.2877        109
  20.3063         92
  20.3249         97
  20.3434        102
  20.3620         76
  20.3806         88
  20.3992         89
  20.4177        108
  20.4363         93
  20.4549         89
  20.4735         98
  20.4921         91
  20.5106         94
  20.5292         78
  20.5478         88
  20.5664         75
  20.5849         99
  20.6035         93
  20.6221         98
  20.6407        109
  20.6592         76
  20.6778         88
  20.6964         86
  20.7150         84
  20.7335         93
  20.7521         96
  20.7707         85
  20.7893         88
  20.8078        104
  20.8264         91
  20.8450         80
  20.8636         81
  20.8821         83
  20.9007         90
  20.9193        109
  20.9379         77
  20.9564         94
  20.9750         95
  20.9936         97
  21.0122         93
  21.0307         70
  21.0493        105
  21.0679        109
  21.0865        102
  21.1050        107
  21.1236        117
  21.1422        105
  21.1608        118
  21.1793        124
  21.1979        146
  21.2165        177
  21.2351        159
  21.2537        136
  21.2722        139
  21.2908        151
  21.3094        166
  21.3280        176
  21.3465        239
  21.3651        247
  21.3837        223
  21.4023        201
  21.4208        187
  21.4394        151
  21.4580        124
  21.4766        112
  21.4951         93
  21.5137        107
  21.5323        102
  21.5509        106
  21.5694        103
  21.5880        109
  21.6066        100
  21.6252         90
  21.6437        102
  21.6623         99
  21.6809         97
  21.6995         94
  21.7180         91
  21.7366         88
  21.7552        106
  21.7738         97
  21.7923        104
  21.8109         92
  21.8295         90
  21.8481         80
  21.8666        105
  21.8852         98
  21.9038         93
  21.9224        109
  21.9409        113
  21.9595         90
  21.9781        103
  21.9967         97
  22.0152        103
  22.0338        103
  22.0524         99
  22.0710        109
  22.0896        104
  22.1081        107
  22.1267         94
  22.1453         89
  22.1639         84
  22.1824         98
  22.2010         93
  22.2196        101
  22.2382         80
  22.2567         88
  22.2753         94
  22.2939         98
  22.3125        105
  22.3310         98
  22.3496         87
  22.3682         88
  22.3868         96
  22.4053        100
  22.4239         96
  22.4425         91
  22.4611        116
  22.4796         95
  22.4982        102
  22.5168        103
  22.5354         94
  22.5539        104
  22.5725         88
  22.5911         95
  22.6097         85
  22.6282         98
  22.6468         91
  22.6654         91
  22.6840         88
  22.7025        100
  22.7211         91
  22.7397         90
  22.7583         99
  22.7768         73
  22.7954         87
  22.8140         86
  22.8326         93
  22.8512         91
  22.8697         92
  22.8883        114
  22.9069        108
  22.9255        107
  22.9440         96
  22.9626         92
  22.9812         95
  22.9998         84
  23.0183        103
  23.0369         97
  23.0555         90
  23.0741        101
  23.0926        114
  23.1112         93
  23.1298         93
  23.1484         86
  23.1669         96
  23.1855         85
  23.2041         91
  23.2227        104
  23.2412         99
  23.2598         91
  23.2784         98
  23.2970        121
  23.3155        101
  23.3341         96
  23.3527        105
  23.3713         93
  23.3898         98
  23.4084        105
  23.4270         91
  23.4456        107
  23.4641         96
  23.4827         87
  23.5013         98
  23.5199        103
  23.5384        124
  23.5570         92
  23.5756         91
  23.5942         91
  23.6128        101
  23.6313         90
  23.6499         90
  23.6685         96
  23.6871         96
  23.7056        120
  23.7242         99
  23.7428         98
  23.7614         79
  23.7799        103
  23.7985        103
  23.8171         92
  23.8357        119
  23.8542        101
  23.8728         79
  23.8914         95
  23.9100         99
  23.9285        100
  23.9471         98
  23.9657        116
  23.9843         99
  24.0028         82
  24.0214         98
  24.0400        103
  24.0586         90
  24.0771         99
  24.0957         96
  24.1143        106
  24.1329        121
  24.1514         96
  24.1700        108
  24.1886        111
  24.2072        123
  24.2257         88
  24.2443        121
  24.2629        111
  24.2815        103
  24.3000        114
  24.3186        102
  24.3372        114
  24.3558        122
  24.3744        102
  24.3929        107
  24.4115        106
  24.4301         97
  24.4487        113
  24.4672        109
  24.4858         90
  24.5044         93
  24.5230        115
  24.5415        120
  24.5601        104
  24.5787        108
  24.5973        103
  24.6158        103
  24.6344         94
  24.6530         87
  24.6716         95
  24.6901        103
  24.7087        103
  24.7273         95
  24.7459         95
  24.7644         88
  24.7830         92
  24.8016         97
  24.8202        100
  24.8387        102
  24.8573         81
  24.8759         99
  24.8945         93
  24.9130         92
  24.9316        106
  24.9502        105
  24.9688        100
  24.9873        105
  25.0059         89
  25.0245         93
  25.0431         94
  25.0616         96
  25.0802         96
  25.0988         90
  25.1174        110
  25.1360        100
  25.1545         91
  25.1731         93
  25.1917         98
  25.2103        101
  25.2288         90
  25.2474        103
  25.2660         83
  25.2846        113
  25.3031         85
  25.3217        107
  25.3403         93
  25.3589        105
  25.3774         93
  25.3960        103
  25.4146         98
  25.4332         76
  25.4517         93
  25.4703         94
  25.4889         93
  25.5075         86
  25.5260         84
  25.5446         95
  25.5632        102
  25.5818        108
  25.6003         88
  25.6189         98
  25.6375         99
  25.6561         95
  25.6746        104
  25.6932         77
  25.7118         96
  25.7304         93
  25.7489        104
  25.7675         91
  25.7861        102
  25.8047         87
  25.8232         92
  25.8418        101
  25.8604         99
  25.8790         96
  25.8976         94
  25.9161        101
  25.9347        101
  25.9533         92
  25.9719        100
  25.9904         81
  26.0090         89
  26.0276        104
  26.0462        102
  26.0647         87
  26.0833         96
  26.1019         98
  26.1205         90
  26.1390         94
  26.1576         74
  26.1762        105
  26.1948        109
  26.2133         83
  26.2319         78
  26.2505         91
  26.2691        104
  26.2876         84
  26.3062        105
  26.3248         89
  26.3434         92
  26.3619         81
  26.3805        104
  26.3991        118
  26.4177         76
  26.4362         98
  26.4548         87
  26.4734         87
  26.4920         94
  26.5105         76
  26.5291        105
  26.5477         98
  26.5663         96
  26.5848         98
  26.6034         89
  26.6220        118
  26.6406         98
  26.6591        104
  26.6777         89
  26.6963         79
  26.7149         97
  26.7335         86
  26.7520        103
  26.7706        100
  26.7892         83
  26.8078        108
  26.8263        102
  26.8449         88
  26.8635         95
  26.8821        106
  26.9006         78
  26.9192         93
  26.9378         94
  26.9564        102
  26.9749         94
  26.9935         77
  27.0121         91
  27.0307        102
  27.0492         84
  27.0678         86
  27.0864         83
  27.1050         87
  27.1235         95
  27.1421        102
  27.1607         97
  27.1793        116
  27.1978        125
  27.2164        113
  27.2350        107
  27.2536        106
  27.2721        129
  27.2907        111
  27.3093        104
  27.3279         97
  27.3464         79
  27.3650        102
  27.3836         90
  27.4022         78
  27.4207         94
  27.4393         84
  27.4579         86
  27.4765         78
  27.4951        101
  27.5136         95
  27.5322         84
  27.5508         71
  27.5694         86
  27.5879         76
  27.6065         88
  27.6251         82
  27.6437         87
  27.6622         82
  27.6808         83
  27.6994         82
  27.7180        103
  27.7365         83
  27.7551         93
  27.7737         89
  27.7923        100
  27.8108         96
  27.8294         86
  27.8480         71
  27.8666         88
  27.8851         94
  27.9037         91
  27.9223         92
  27.9409         73
  27.9594         88
  27.9780         66
  27.9966        107
  28.0152         87
  28.0337         96
  28.0523         84
  28.0709         87
  28.0895         83
  28.1080         90
  28.1266         86
  28.1452         85
  28.1638         94
  28.1823         91
  28.2009         70
  28.2195         98
  28.2381         58
  28.2567         75
  28.2752         79
  28.2938         73
  28.3124         74
  28.3310        112
  28.3495         79
  28.3681         88
  28.3867         69
  28.4053         78
  28.4238         79
  28.4424         69
  28.4610         87
  28.4796         83
  28.4981         93
  28.5167         83
  28.5353         90
  28.5539         82
  28.5724         90
  28.5910         76
  28.6096         65
  28.6282         94
  28.6467         90
  28.6653         92
  28.6839         94
  28.7025         65
  28.7210         69
  28.7396         80
  28.7582         89
  28.7768         77
  28.7953         93
  28.8139         86
  28.8325         86
  28.8511         75
  28.8696         80
  28.8882         73
  28.9068         76
  28.9254         87
  28.9439         74
  28.9625         85
  28.9811         79
  28.9997         62
  29.0183         78
  29.0368         80
  29.0554         88
  29.0740         79
  29.0926         86
  29.1111         95
  29.1297         67
  29.1483         89
  29.1669         67
  29.1854         78
  29.2040         74
  29.2226         96
  29.2412         80
  29.2597         77
  29.2783         82
  29.2969         74
  29.3155         72
  29.3340         67
  29.3526         91
  29.3712         70
  29.3898         77
  29.4083         77
  29.4269         56
  29.4455         84
  29.4641         96
  29.4826         85
  29.5012         86
  29.5198         73
  29.5384         74
  29.5569        110
  29.5755         69
  29.5941         69
  29.6127         74
  29.6312         90
  29.6498         84
  29.6684         71
  29.6870         73
  29.7055         83
  29.7241         67
  29.7427         87
  29.7613         76
  29.7799         88
  29.7984         73
  29.8170         75
  29.8356         76
  29.8542         93
  29.8727         77
  29.8913         59
  29.9099         68
  29.9285         86
  29.9470         79
  29.9656         71
  29.9842         72
  30.0028         85
  30.0213         83
  30.0399         83
  30.0585         64
  30.0771         86
  30.0956         80
  30.1142         93
  30.1328         69
  30.1514         81
  30.1699         85
  30.1885         74
  30.2071         96
  30.2257         92
  30.2442         81
  30.2628         93
  30.2814         79
  30.3000         90
  30.3185         84
  30.3371        111
  30.3557        125
  30.3743        135
  30.3928        165
  30.4114        126
  30.4300        111
  30.4486        105
  30.4671        140
  30.4857         91
  30.5043         91
  30.5229         79
  30.5415         73
  30.5600         80
  30.5786         79
  30.5972         71
  30.6158         48
  30.6343         75
  30.6529         68
  30.6715         73
  30.6901         61
  30.7086         73
  30.7272         68
  30.7458         57
  30.7644         59
  30.7829         84
  30.8015         60
  30.8201         69
  30.8387         73
  30.8572         81
  30.8758         78
  30.8944         62
  30.9130         59
  30.9315         72
  30.9501         62
  30.9687         63
  30.9873         58
  31.0058         70
  31.0244         78
  31.0430         71
  31.0616         79
  31.0801         65
  31.0987         54
  31.1173         58
  31.1359         71
  31.1544         69
  31.1730         73
  31.1916         67
  31.2102         80
  31.2287         58
  31.2473         82
  31.2659         68
  31.2845         80
  31.3030         76
  31.3216         62
  31.3402         69
  31.3588         89
  31.3774         58
  31.3959         57
  31.4145         59
  31.4331         53
  31.4517         76
  31.4702         67
  31.4888         72
  31.5074         65
  31.5260         73
  31.5445         74
  31.5631         56
  31.5817         63
  31.6003         60
  31.6188         55
  31.6374         66
  31.6560         65
  31.6746         74
  31.6931         79
  31.7117         62
  31.7303         67
  31.7489         64
  31.7674         82
  31.7860         73
  31.8046         65
  31.8232         76
  31.8417         60
  31.8603         54
  31.8789         60
  31.8975         73
  31.9160         66
  31.9346         70
  31.9532         65
  31.9718         73
  31.9903         71
  32.0089         71
  32.0275         72
  32.0461         68
  32.0646         69
  32.0832         49
  32.1018         68
  32.1204         70
  32.1390         61
  32.1575         64
  32.1761         65
  32.1947         63
  32.2133         52
  32.2318         73
  32.2504         67
  32.2690         55
  32.2876         65
  32.3061         54
  32.3247         62
  32.3433         73
  32.3619         56
  32.3804         58
  32.3990         75
  32.4176         75
  32.4362         68
  32.4547         84
  32.4733         61
  32.4919         74
  32.5105         74
  32.5290         76
  32.5476         59
  32.5662         64
  32.5848         78
  32.6033         63
  32.6219         64
  32.6405         55
  32.6591         59
  32.6776         65
  32.6962         62
  32.7148         73
  32.7334         48
  32.7519         61
  32.7705         61
  32.7891         55
  32.8077         62
  32.8262         55
  32.8448         75
  32.8634         56
  32.8820         50
  32.9006         59
  32.9191         60
  32.9377         64
  32.9563         76
  32.9749         74
  32.9934         63
  33.0120         56
  33.0306         66
  33.0492         49
  33.0677         62
  33.0863         55
  33.1049         55
  33.1235         70
  33.1420         53
  33.1606         72
  33.1792         63
  33.1978         60
  33.2163         61
  33.2349         70
  33.2535         66
  33.2721         59
  33.2906         58
  33.3092         61
  33.3278         54
  33.3464         60
  33.3649         51
  33.3835         55
  33.4021         64
  33.4207         64
  33.4392         54
  33.4578         55
  33.4764         62
  33.4950         68
  33.5135         53
  33.5321         50
  33.5507         50
  33.5693         68
  33.5878         55
  33.6064         62
  33.6250         52
  33.6436         54
  33.6622         53
  33.6807         55
  33.6993         51
  33.7179         53
  33.7365         65
  33.7550         75
  33.7736         42
  33.7922         57
  33.8108         57
  33.8293         46
  33.8479         63
  33.8665         58
  33.8851         65
  33.9036         53
  33.9222         66
  33.9408         53
  33.9594         57
  33.9779         63
  33.9965         56
  34.0151         66
  34.0337         60
  34.0522         46
  34.0708         62
  34.0894         54
  34.1080         52
  34.1265         62
  34.1451         52
  34.1637         55
  34.1823         58
  34.2008         57
  34.2194         52
  34.2380         54
  34.2566         55
  34.2751         51
  34.2937         56
  34.3123         65
  34.3309         67
  34.3494         53
  34.3680         59
  34.3866         53
  34.4052         55
  34.4238         53
  34.4423         65
  34.4609         67
  34.4795         47
  34.4981         53
  34.5166         45
  34.5352         43
  34.5538         48
  34.5724         65
  34.5909         66
  34.6095         68
  34.6281         59
  34.6467         61
  34.6652         68
  34.6838         55
  34.7024         77
  34.7210         72
  34.7395         59
  34.7581         68
  34.7767         72
  34.7953         67
  34.8138         86
  34.8324         54
  34.8510         73
  34.8696         58
  34.8881         79
  34.9067         47
  34.9253         44
  34.9439         52
  34.9624         47
  34.9810         61
  34.9996         57
  35.0182         61
  35.0367         57
  35.0553         46
  35.0739         46
  35.0925         66
  35.1110         57
  35.1296         51
  35.1482         53
  35.1668         43
  35.1854         55
  35.2039         48
  35.2225         50
  35.2411         42
  35.2597         50
  35.2782         63
  35.2968         66
  35.3154         54
  35.3340         50
  35.3525         52
  35.3711         52
  35.3897         46
  35.4083         47
  35.4268         37
  35.4454         48
  35.4640         48
  35.4826         48
  35.5011         47
  35.5197         45
  35.5383         47
  35.5569         47
  35.5754         37
  35.5940         46
  35.6126         73
  35.6312         50
  35.6497         53
  35.6683         58
  35.6869         50
  35.7055         48
  35.7240         50
  35.7426         52
  35.7612         48
  35.7798         57
  35.7983         45
  35.8169         37
  35.8355         49
  35.8541         64
  35.8726         30
  35.8912         54
  35.9098         56
  35.9284         46
  35.9469         34
  35.9655         48
  35.9841         43
  36.0027         59
  36.0213         48
  36.0398         53
  36.0584         50
  36.0770         47
  36.0956         38
  36.1141         49
  36.1327         61
  36.1513         40
  36.1699         44
  36.1884         39
  36.2070         45
  36.2256         54
  36.2442         49
  36.2627         53
  36.2813         49
  36.2999         44
  36.3185         51
  36.3370         47
  36.3556         49
  36.3742         53
  36.3928         38
  36.4113         46
  36.4299         44
  36.4485         45
  36.4671         43
  36.4856         46
  36.5042         58
  36.5228         58
  36.5414         43
  36.5599         29
  36.5785         43
  36.5971         53
  36.6157         56
  36.6342         46
  36.6528         48
  36.6714         39
  36.6900         37
  36.7085         36
  36.7271         48
  36.7457         40
  36.7643         43
  36.7829         46
  36.8014         48
  36.8200         47
  36.8386         54
  36.8572         48
  36.8757         48
  36.8943         49
  36.9129         43
  36.9315         45
  36.9500         56
  36.9686         42
  36.9872         50
  37.0058         47
  37.0243         52
  37.0429         41
  37.0615         42
  37.0801         48
  37.0986         65
  37.1172         39
  37.1358         55
  37.1544         48
  37.1729         47
  37.1915         54
  37.2101         39
  37.2287         41
  37.2472         45
  37.2658         48
  37.2844         50
  37.3030         31
  37.3215         47
  37.3401         45
  37.3587         36
  37.3773         43
  37.3958         47
  37.4144         62
  37.4330         83
  37.4516         78
  37.4701         60
  37.4887         55
  37.5073         51
  37.5259         53
  37.5445         52
  37.5630         59
  37.5816         47
  37.6002         46
  37.6188         52
  37.6373         59
  37.6559         43
  37.6745         47
  37.6931         45
  37.7116         51
  37.7302         46
  37.7488         33
  37.7674         42
  37.7859         40
  37.8045         51
  37.8231         37
  37.8417         45
  37.8602         37
  37.8788         36
  37.8974         53
  37.9160         51
  37.9345         43
  37.9531         39
  37.9717         48
  37.9903         46
  38.0088         58
  38.0274         26
  38.0460         41
  38.0646         51
  38.0831         41
  38.1017         38
  38.1203         51
  38.1389         35
  38.1574         47
  38.1760         39
  38.1946         43
  38.2132         45
  38.2317         56
  38.2503         46
  38.2689         40
  38.2875         46
  38.3061         34
  38.3246         48
  38.3432         24
  38.3618         45
  38.3804         45
  38.3989         36
  38.4175         40
  38.4361         49
  38.4547         40
  38.4732         34
  38.4918         57
  38.5104         41
  38.5290         28
  38.5475         32
  38.5661         42
  38.5847         30
  38.6033         47
  38.6218         38
  38.6404         40
  38.6590         49
  38.6776         40
  38.6961         39
  38.7147         37
  38.7333         37
  38.7519         33
  38.7704         35
  38.7890         46
  38.8076         38
  38.8262         36
  38.8447         39
  38.8633         50
  38.8819         51
  38.9005         47
  38.9190         49
  38.9376         42
  38.9562         35
  38.9748         42
  38.9933         49
  39.0119         30
  39.0305         48
  39.0491         33
  39.0677         32
  39.0862         32
  39.1048         43
  39.1234         37
  39.1420         38
  39.1605         44
  39.1791         37
  39.1977         33
  39.2163         44
  39.2348         46
  39.2534         43
  39.2720         33
  39.2906         44
  39.3091         38
  39.3277         38
  39.3463         52
  39.3649         38
  39.3834         28
  39.4020         47
  39.4206         42
  39.4392         49
  39.4577         44
  39.4763         40
  39.4949         44
  39.5135         38
  39.5320         34
  39.5506         36
  39.5692         27
  39.5878         35
  39.6063         51
  39.6249         43
  39.6435         32
  39.6621         42
  39.6806         36
  39.6992         44
  39.7178         43
  39.7364         33
  39.7549         24
  39.7735         31
  39.7921         40
  39.8107         48
  39.8293         39
  39.8478         37
  39.8664         46
  39.8850         43
  39.9036         42
  39.9221         47
  39.9407         53
  39.9593         33
  39.9779         38
  39.9964         29
  40.0150         38
  40.0336         38
  40.0522         37
  40.0707         37
  40.0893         46
  40.1079         36
  40.1265         46
  40.1450         37
  40.1636         39
  40.1822         35
  40.2008         44
  40.2193         47
  40.2379         38
  40.2565         40
  40.2751         31
  40.2936         35
  40.3122         40
  40.3308         40
  40.3494         37
  40.3679         41
  40.3865         32
  40.4051         37
  40.4237         28
  40.4422         42
  40.4608         46
  40.4794         35
  40.4980         33
  40.5165         30
  40.5351         43
  40.5537         42
  40.5723         36
  40.5908         34
  40.6094         32
  40.6280         46
  40.6466         40
  40.6652         43
  40.6837         34
  40.7023         42
  40.7209         39
  40.7395         44
  40.7580         28
  40.7766         39
  40.7952         31
  40.8138         31
  40.8323         41
  40.8509         38
  40.8695         45
  40.8881         34
  40.9066         46
  40.9252         44
  40.9438         33
  40.9624         33
  40.9809         32
  40.9995         48
  41.0181         45
  41.0367         32
  41.0552         34
  41.0738         48
  41.0924         43
  41.1110         46
  41.1295         34
  41.1481         36
  41.1667         50
  41.1853         42
  41.2038         43
  41.2224         42
  41.2410         32
  41.2596         28
  41.2781         42
  41.2967         37
  41.3153         36
  41.3339         47
  41.3524         40
  41.3710         35
  41.3896         31
  41.4082         27
  41.4268         35
  41.4453         29
  41.4639         39
  41.4825         26
  41.5011         39
  41.5196         31
  41.5382         28
  41.5568         43
  41.5754         47
  41.5939         34
  41.6125         40
  41.6311         37
  41.6497         32
  41.6682         34
  41.6868         42
  41.7054         34
  41.7240         36
  41.7425         31
  41.7611         40
  41.7797         37
  41.7983         37
  41.8168         47
  41.8354         36
  41.8540         43
  41.8726         38
  41.8911         35
  41.9097         33
  41.9283         53
  41.9469         43
  41.9654         40
  41.9840         26
  42.0026         44
  42.0212         33
  42.0397         28
  42.0583         30
  42.0769         24
  42.0955         43
  42.1140         46
  42.1326         36
  42.1512         34
  42.1698         40
  42.1884         39
  42.2069         31
  42.2255         38
  42.2441         43
  42.2627         31
  42.2812         43
  42.2998         32
  42.3184         30
  42.3370         42
  42.3555         32
  42.3741         45
  42.3927         38
  42.4113         36
  42.4298         21
  42.4484         42
  42.4670         35
  42.4856         37
  42.5041         31
  42.5227         39
  42.5413         44
  42.5599         40
  42.5784         31
  42.5970         31
  42.6156         19
  42.6342         22
  42.6527         40
  42.6713         40
  42.6899         32
  42.7085         30
  42.7270         42
  42.7456         31
  42.7642         27
  42.7828         31
  42.8013         37
  42.8199         41
  42.8385         33
  42.8571         39
  42.8756         32
  42.8942         31
  42.9128         35
  42.9314         33
  42.9500         43
  42.9685         40
  42.9871         37
  43.0057         30
  43.0243         35
  43.0428         38
  43.0614         47
  43.0800         35
  43.0986         32
  43.1171         42
  43.1357         40
  43.1543         34
  43.1729         41
  43.1914         50
  43.2100         43
  43.2286         40
  43.2472         44
  43.2657         50
  43.2843         37
  43.3029         41
  43.3215         49
  43.3400         44
  43.3586         44
  43.3772         48
  43.3958         43
  43.4143         40
  43.4329         31
  43.4515         39
  43.4701         47
  43.4886         60
  43.5072         66
  43.5258         65
  43.5444         54
  43.5629         47
  43.5815         40
  43.6001         51
  43.6187         68
  43.6372         44
  43.6558         39
  43.6744         38
  43.6930         36
  43.7116         22
  43.7301         43
  43.7487         40
  43.7673         41
  43.7859         40
  43.8044         41
  43.8230         41
  43.8416         37
  43.8602         32
  43.8787         37
  43.8973         42
  43.9159         44
  43.9345         40
  43.9530         39
  43.9716         35
  43.9902         34
  44.0088         40
  44.0273         38
  44.0459         36
  44.0645         44
  44.0831         39
  44.1016         48
  44.1202         34
  44.1388         32
  44.1574         29
  44.1759         36
  44.1945         35
  44.2131         33
  44.2317         32
  44.2502         40
  44.2688         25
  44.2874         24
  44.3060         36
  44.3245         37
  44.3431         38
  44.3617         31
  44.3803         44
  44.3988         37
  44.4174         37
  44.4360         40
  44.4546         43
  44.4732         39
  44.4917         37
  44.5103         39
  44.5289         35
  44.5475         40
  44.5660         33
  44.5846         41
  44.6032         36
  44.6218         30
  44.6403         40
  44.6589         45
  44.6775         26
  44.6961         44
  44.7146         34
  44.7332         44
  44.7518         45
  44.7704         27
  44.7889         34
  44.8075         38
  44.8261         29
  44.8447         32
  44.8632         34
  44.8818         32
  44.9004         42
  44.9190         37
  44.9375         36
  44.9561         27
  44.9747         35
  44.9933         31
  45.0118         33
  45.0304         25
  45.0490         32
  45.0676         47
  45.0861         35
  45.1047         51
  45.1233         24
  45.1419         45
  45.1604         25
  45.1790         37
  45.1976         35
  45.2162         37
  45.2347         49
  45.2533         35
  45.2719         47
  45.2905         32
  45.3091         24
  45.3276         33
  45.3462         25
  45.3648         27
  45.3834         42
  45.4019         39
  45.4205         28
  45.4391         36
  45.4577         29
  45.4762         27
  45.4948         29
  45.5134         29
  45.5320         32
  45.5505         32
  45.5691         31
  45.5877         33
  45.6063         25
  45.6248         28
  45.6434         30
  45.6620         36
  45.6806         35
  45.6991         42
  45.7177         30
  45.7363         31
  45.7549         35
  45.7734         38
  45.7920         33
  45.8106         34
  45.8292         39
  45.8477         21
  45.8663         39
  45.8849         26
  45.9035         29
  45.9220         27
  45.9406         38
  45.9592         38
  45.9778         30
  45.9963         30
  46.0149         34
  46.0335         32
  46.0521         30
  46.0707         46
  46.0892         34
  46.1078         43
  46.1264         22
  46.1450         35
  46.1635         32
  46.1821         33
  46.2007         35
  46.2193         28
  46.2378         29
  46.2564         26
  46.2750         37
  46.2936         28
  46.3121         35
  46.3307         32
  46.3493         33
  46.3679         36
  46.3864         34
  46.4050         33
  46.4236         30
  46.4422         45
  46.4607         34
  46.4793         43
  46.4979         32
  46.5165         36
  46.5350         42
  46.5536         35
  46.5722         31
  46.5908         36
  46.6093         39
  46.6279         30
  46.6465         39
  46.6651         33
  46.6836         24
  46.7022         30
  46.7208         31
  46.7394         30
  46.7579         34
  46.7765         26
  46.7951         34
  46.8137         34
  46.8323         31
  46.8508         36
  46.8694         30
  46.8880         30
  46.9066         28
  46.9251         29
  46.9437         32
  46.9623         35
  46.9809         32
  46.9994         36
  47.0180         33
  47.0366         34
  47.0552         20
  47.0737         37
  47.0923         39
  47.1109         33
  47.1295         34
  47.1480         34
  47.1666         35
  47.1852         38
  47.2038         35
  47.2223         37
  47.2409         26
  47.2595         30
  47.2781         28
  47.2966         33
  47.3152         30
  47.3338         38
  47.3524         24
  47.3709         37
  47.3895         38
  47.4081         29
  47.4267         29
  47.4452         28
  47.4638         32
  47.4824         30
  47.5010         37
  47.5195         36
  47.5381         37
  47.5567         32
  47.5753         30
  47.5939         24
  47.6124         39
  47.6310         26
  47.6496         36
  47.6682         46
  47.6867         33
  47.7053         33
  47.7239         31
  47.7425         32
  47.7610         34
  47.7796         30
  47.7982         34
  47.8168         31
  47.8353         35
  47.8539         27
  47.8725         15
  47.8911         25
  47.9096         30
  47.9282         41
  47.9468         19
  47.9654         31
  47.9839         33
  48.0025         35
  48.0211         35
  48.0397         30
  48.0582         38
  48.0768         25
  48.0954         30
  48.1140         33
  48.1325         26
  48.1511         28
  48.1697         34
  48.1883         26
  48.2068         30
  48.2254         29
  48.2440         42
  48.2626         26
  48.2811         35
  48.2997         31
  48.3183         32
  48.3369         38
  48.3555         32
  48.3740         33
  48.3926         23
  48.4112         37
  48.4298         25
  48.4483         22
  48.4669         35
  48.4855         22
  48.5041         23
  48.5226         34
  48.5412         25
  48.5598         38
  48.5784         28
  48.5969         35
  48.6155         27
  48.6341         21
  48.6527         28
  48.6712         28
  48.6898         32
  48.7084         32
  48.7270         32
  48.7455         28
  48.7641         25
  48.7827         27
  48.8013         24
  48.8198         32
  48.8384         33
  48.8570         31
  48.8756         29
  48.8941         38
  48.9127         43
  48.9313         51
  48.9499         56
  48.9684         61
  48.9870         44
  49.0056         46
  49.0242         35
  49.0427         37
  49.0613         41
  49.0799         54
  49.0985         50
  49.1171         43
  49.1356         39
  49.1542         32
  49.1728         33
  49.1914         28
  49.2099         28
  49.2285         26
  49.2471         27
  49.2657         31
  49.2842         41
  49.3028         25
  49.3214         31
  49.3400         32
  49.3585         28
  49.3771         26
  49.3957         32
  49.4143         26
  49.4328         21
  49.4514         24
  49.4700         34
  49.4886         27
  49.5071         37
  49.5257         28
  49.5443         29
  49.5629         30
  49.5814         38
  49.6000         24
  49.6186         36
  49.6372         31
  49.6557         32
  49.6743         30
  49.6929         31
  49.7115         17
  49.7300         27
  49.7486         33
  49.7672         26
  49.7858         32
  49.8043         33
  49.8229         38
  49.8415         37
  49.8601         30
  49.8786         31
  49.8972         26
  49.9158         21
  49.9344         27
  49.9530         25
  49.9715         27
  49.9901         22
  50.0087         35
  50.0273         31
  50.0458         31
  50.0644         37
  50.0830         31
  50.1016         32
  50.1201         29
  50.1387         25
  50.1573         32
  50.1759         27
  50.1944         38
  50.2130         27
  50.2316         36
  50.2502         34
  50.2687         35
  50.2873         31
  50.3059         30
  50.3245         29
  50.3430         34
  50.3616         30
  50.3802         26
  50.3988         30
  50.4173         26
  50.4359         33
  50.4545         32
  50.4731         22
  50.4916         31
  50.5102         28
  50.5288         20
  50.5474         22
  50.5659         30
  50.5845         31
  50.6031         32
  50.6217         30
  50.6402         26
  50.6588         29
  50.6774         24
  50.6960         21
  50.7146         36
  50.7331         21
  50.7517         28
  50.7703         23
  50.7889         30
  50.8074         27
  50.8260         18
  50.8446         19
  50.8632         37
  50.8817         27
  50.9003         31
  50.9189         21
  50.9375         20
  50.9560         25
  50.9746         34
  50.9932         39
  51.0118         40
  51.0303         34
  51.0489         29
  51.0675         28
  51.0861         29
  51.1046         36
  51.1232         31
  51.1418         27
  51.1604         36
  51.1789         22
  51.1975         30
  51.2161         32
  51.2347         30
  51.2532         30
  51.2718         36
  51.2904         26
  51.3090         31
  51.3275         30
  51.3461         29
  51.3647         34
  51.3833         36
  51.4018         38
  51.4204         36
  51.4390         32
  51.4576         32
  51.4762         33
  51.4947         30
  51.5133         28
  51.5319         31
  51.5505         26
  51.5690         31
  51.5876         25
  51.6062         33
  51.6248         39
  51.6433         31
  51.6619         27
  51.6805         37
  51.6991         28
  51.7176         34
  51.7362         26
  51.7548         26
  51.7734         21
  51.7919         32
  51.8105         34
  51.8291         40
  51.8477         34
  51.8662         31
  51.8848         35
  51.9034         40
  51.9220         27
  51.9405         28
  51.9591         40
  51.9777         38
  51.9963         40
  52.0148         28
  52.0334         43
  52.0520         33
  52.0706         28
  52.0891         22
  52.1077         29
  52.1263         30
  52.1449         30
  52.1634         22
  52.1820         35
  52.2006         29
  52.2192         32
  52.2378         25
  52.2563         22
  52.2749         34
  52.2935         28
  52.3121         34
  52.3306         47
  52.3492         47
  52.3678         35
  52.3864         26
  52.4049         29
  52.4235         29
  52.4421         21
  52.4607         15
  52.4792         37
  52.4978         33
  52.5164         22
  52.5350         19
  52.5535         32
  52.5721         33
  52.5907         24
  52.6093         36
  52.6278         30
  52.6464         31
  52.6650         23
  52.6836         31
  52.7021         25
  52.7207         31
  52.7393         31
  52.7579         25
  52.7764         31
  52.7950         27
  52.8136         31
  52.8322         23
  52.8507         25
  52.8693         18
  52.8879         26
  52.9065         29
  52.9250         40
  52.9436         26
  52.9622         35
  52.9808         32
  52.9994         30
  53.0179         35
  53.0365         33
  53.0551         31
  53.0737         28
  53.0922         40
  53.1108         32
  53.1294         23
  53.1480         31
  53.1665         32
  53.1851         26
  53.2037         26
  53.2223         24
  53.2408         37
  53.2594         19
  53.2780         21
  53.2966         33
  53.3151         25
  53.3337         20
  53.3523         35
  53.3709         30
  53.3894         26
  53.4080         28
  53.4266         29
  53.4452         24
  53.4637         27
  53.4823         27
  53.5009         27
  53.5195         32
  53.5380         26
  53.5566         30
  53.5752         31
  53.5938         29
  53.6123         25
  53.6309         23
  53.6495         28
  53.6681         23
  53.6866         34
  53.7052         21
  53.7238         26
  53.7424         28
  53.7610         37
  53.7795         22
  53.7981         30
  53.8167         27
  53.8353         26
  53.8538         40
  53.8724         23
  53.8910         36
  53.9096         33
  53.9281         36
  53.9467         33
  53.9653         28
  53.9839         38
  54.0024         40
  54.0210         39
  54.0396         39
  54.0582         40
  54.0767         27
  54.0953         57
  54.1139         43
  54.1325         37
  54.1510         46
  54.1696         28
  54.1882         37
  54.2068         30
  54.2253         33
  54.2439         29
  54.2625         30
  54.2811         40
  54.2996         30
  54.3182         29
  54.3368         30
  54.3554         31
  54.3739         23
  54.3925         27
  54.4111         31
  54.4297         34
  54.4482         22
  54.4668         27
  54.4854         29
  54.5040         30
  54.5225         25
  54.5411         22
  54.5597         27
  54.5783         19
  54.5969         25
  54.6154         22
  54.6340         25
  54.6526         34
  54.6712         25
  54.6897         36
  54.7083         24
  54.7269         23
  54.7455         25
  54.7640         23
  54.7826         38
  54.8012         27
  54.8198         25
  54.8383         27
  54.8569         32
  54.8755         19
  54.8941         25
  54.9126         31
  54.9312         30
  54.9498         25
  54.9684         29
  54.9869         29
  55.0055         21
  55.0241         23
  55.0427         37
  55.0612         27
  55.0798         23
  55.0984         24
  55.1170         26
  55.1355         28
  55.1541         25
  55.1727         32
  55.1913         23
  55.2098         29
  55.2284         28
  55.2470         22
  55.2656         24
  55.2841         26
  55.3027         29
  55.3213         39
  55.3399         23
  55.3585         28
  55.3770         29
  55.3956         29
  55.4142         33
  55.4328         30
  55.4513         29
  55.4699         28
  55.4885         26
  55.5071         36
  55.5256         34
  55.5442         22
  55.5628         31
  55.5814         35
  55.5999         32
  55.6185         34
  55.6371         19
  55.6557         25
  55.6742         20
  55.6928         36
  55.7114         22
  55.7300         24
  55.7485         32
  55.7671         29
  55.7857         31
  55.8043         14
  55.8228         26
  55.8414         31
  55.8600         29
  55.8786         30
  55.8971         24
  55.9157         29
  55.9343         34
  55.9529         28
  55.9714         26
  55.9900         46
  56.0086         32
  56.0272         25
  56.0457         31
  56.0643         27
  56.0829         24
  56.1015         33
  56.1201         46
  56.1386         29
  56.1572         37
  56.1758         27
  56.1944         34
  56.2129         23
  56.2315         30
  56.2501         27
  56.2687         34
  56.2872         29
  56.3058         39
  56.3244         26
  56.3430         34
  56.3615         29
  56.3801         31
  56.3987         32
  56.4173         14
  56.4358         39
  56.4544         38
  56.4730         29
  56.4916         31
  56.5101         22
  56.5287         26
  56.5473         32
  56.5659         27
  56.5844         24
  56.6030         34
  56.6216         28
  56.6402         25
  56.6587         22
  56.6773         31
  56.6959         27
  56.7145         28
  56.7330         30
  56.7516         25
  56.7702         30
  56.7888         33
  56.8073         24
  56.8259         26
  56.8445         22
  56.8631         29
  56.8817         20
  56.9002         22
  56.9188         30
  56.9374         32
  56.9560         25
  56.9745         23
  56.9931         28
  57.0117         26
  57.0303         24
  57.0488         21
  57.0674         33
  57.0860         36
  57.1046         25
  57.1231         37
  57.1417         15
  57.1603         39
  57.1789         24
  57.1974         30
  57.2160         39
  57.2346         24
  57.2532         28
  57.2717         26
  57.2903         32
  57.3089         22
  57.3275         22
  57.3460         23
  57.3646         29
  57.3832         28
  57.4018         24
  57.4203         35
  57.4389         32
  57.4575         33
  57.4761         24
  57.4946         32
  57.5132         25
  57.5318         31
  57.5504         33
  57.5689         27
  57.5875         23
  57.6061         20
  57.6247         18
  57.6433         22
  57.6618         27
  57.6804         29
  57.6990         25
  57.7176         34
  57.7361         34
  57.7547         39
  57.7733         23
  57.7919         25
  57.8104         31
  57.8290         26
  57.8476         38
  57.8662         26
  57.8847         25
  57.9033         25
  57.9219         36
  57.9405         27
  57.9590         29
  57.9776         34
  57.9962         25
  58.0148         35
  58.0333         37
  58.0519         20
  58.0705         22
  58.0891         22
  58.1076         18
  58.1262         27
  58.1448         29
  58.1634         27
  58.1819         24
  58.2005         39
  58.2191         20
  58.2377         24
  58.2562         19
  58.2748         40
  58.2934         34
  58.3120         28
  58.3305         26
  58.3491         24
  58.3677         33
  58.3863         32
  58.4049         24
  58.4234         38
  58.4420         26
  58.4606         20
  58.4792         20
  58.4977         31
  58.5163         27
  58.5349         24
  58.5535         27
  58.5720         39
  58.5906         32
  58.6092         31
  58.6278         33
  58.6463         29
  58.6649         28
  58.6835         31
  58.7021         23
  58.7206         39
  58.7392         36
  58.7578         23
  58.7764         24
  58.7949         19
  58.8135         24
  58.8321         27
  58.8507         26
  58.8692         39
  58.8878         22
  58.9064         33
  58.9250         23
  58.9435         31
  58.9621         30
  58.9807         28
  58.9993         24
  59.0178         23
  59.0364         18
  59.0550         22
  59.0736         28
  59.0921         28
  59.1107         21
  59.1293         26
  59.1479         34
  59.1664         19
  59.1850         21
  59.2036         29
  59.2222         24
  59.2408         26
  59.2593         23
  59.2779         23
  59.2965         22
  59.3151         35
  59.3336         36
  59.3522         24
  59.3708         32
  59.3894         18
  59.4079         29
  59.4265         17
  59.4451         31
  59.4637         22
  59.4822         28
  59.5008         30
  59.5194         20
  59.5380         23
  59.5565         33
  59.5751         20
  59.5937         21
  59.6123         31
  59.6308         26
  59.6494         21
  59.6680         28
  59.6866         29
  59.7051         32
  59.7237         21
  59.7423         20
  59.7609         20
  59.7794         25
  59.7980         35
  59.8166         32
  59.8352         26
  59.8537         28
  59.8723         26
  59.8909         24
  59.9095         31
  59.9280         24
  59.9466         20
  59.9652         40
  59.9838         32
  60.0024         24
