; (content of file Y:\Sam\Apurva-07-20-2022\puck4\ML_20220718_52_SJD_4_LaB6-2min.raw)
_FILEVERSION = 3
_SAMPLE = ML_20220718_52_SJD_4_LaB6-2min
_+SAMPLE = 
_SITE = USA
_USER = Administrator
_GONIOMETER_CODE = 20
; Goniometer : D8 theta/2theta, stage : Unknown
_ATTACHMENTS_CODE = 0
_GONIOMETER_RADIUS = 200.5
_FIXED_DIVSLIT = 0.6
_FIXED_SAMPLESLIT = 0
_SOLLER_SLITS = 2
_FIXED_DETSLIT = 9.55
_MONOCHROMATOR = 0
; Incident beam monochromator : None
_SOLLER_SLITS_2 = N
_THIN_FILM = N
_BETA_FILTER = Y
_FIXED_ANTISLIT = 5.89
_ANALYZER_CODE = 0
; Received beam analyzer : None
_DATEMEASURED = "26-Jul-2022 12:32:25"
_WL_UNIT = A
_WL1 = 1.5406
_WL2 = 1.54439
_WL3 = 1.39222
_WLRATIO = 0.5
_ANODE = Cu
_V4_INF_CREATOR = XRDWizard
_V4_INF_CREATOR_VERSION = V2.9.0.22
_V4_INF_WIZARD_VERSION = V2.9.0.22
_V4_INF_WIZARD_ADDINS = V2.9.0.22
_V4_INF_WIZARD_DOCTYPE = XRD
_V4_INF_OSUSER = McQueenLab
_V4_INF_USER = Administrator
_V4_INF_SITE = USA
_V4_INF_SAMPLEID = ML_20220718_52_SJD_4_LaB6-2min

; Data for range 1
_DRIVE = COUPLED
_STEPTIME = 5.64
_STEPSIZE = 0.0185756
_STEPMODE = C
_START = 5
_THETA = 2.5
_2THETA = 5
_KHI = 0
_PHI = 0
_X = 0
_Y = 0
_Z = 0
_DETECTOR = 5
; Detector type : Unknown
_DETECTORSLIT = unkn
_AUX1 = 0
_AUX2 = 0
_AUX3 = 0
_TIMESTARTED = 14
_TEMP_RATE = -1
_TEMP_DELAY = -1
_KV = 40
_MA = 40
_RANGE_WL = 1.5406
_3DPLANE = 0
_V4_ADDITIONALDETECTOR = 257
_V4_PSD2THETA = 3.4137
_V4_PSDCHANNEL1 = 0
_V4_PSDAPERTURE = 12.68
_V4_PSDTYPE = 5
_V4_PSDFIXED = 0
_V4_COUNTERS_MASK = 4096
_V4_DRIVES_MASK = 0
_V4_ENCODERS_MASK = 0
_2THETACOUNTS = 1
; 2THETA  PSD
   5.0000        140
   5.0186        124
   5.0372        136
   5.0557        143
   5.0743        122
   5.0929        131
   5.1115        115
   5.1300        107
   5.1486        122
   5.1672        127
   5.1858        137
   5.2043         97
   5.2229        128
   5.2415        108
   5.2601        129
   5.2786        117
   5.2972        128
   5.3158        127
   5.3344        123
   5.3529        117
   5.3715        100
   5.3901        102
   5.4087        112
   5.4272        110
   5.4458        101
   5.4644        104
   5.4830        115
   5.5015         93
   5.5201        107
   5.5387        125
   5.5573        100
   5.5758        123
   5.5944         99
   5.6130        114
   5.6316        115
   5.6501        112
   5.6687        105
   5.6873         98
   5.7059        123
   5.7244        106
   5.7430        106
   5.7616        111
   5.7802        104
   5.7988        120
   5.8173        103
   5.8359         96
   5.8545         91
   5.8731         96
   5.8916        113
   5.9102        109
   5.9288         99
   5.9474         93
   5.9659        118
   5.9845         99
   6.0031        101
   6.0217         81
   6.0402         95
   6.0588         96
   6.0774        108
   6.0960        117
   6.1145         76
   6.1331        108
   6.1517         96
   6.1703        104
   6.1888        100
   6.2074         89
   6.2260         83
   6.2446         90
   6.2631         79
   6.2817         94
   6.3003        113
   6.3189         77
   6.3374         92
   6.3560         95
   6.3746         99
   6.3932         99
   6.4117         72
   6.4303        104
   6.4489         88
   6.4675         83
   6.4860         95
   6.5046         93
   6.5232         87
   6.5418         65
   6.5604         68
   6.5789         87
   6.5975         95
   6.6161         89
   6.6347         84
   6.6532         92
   6.6718         76
   6.6904         83
   6.7090        105
   6.7275         77
   6.7461         93
   6.7647         73
   6.7833         91
   6.8018         93
   6.8204        100
   6.8390         90
   6.8576         79
   6.8761         89
   6.8947         73
   6.9133         82
   6.9319         74
   6.9504         71
   6.9690         90
   6.9876         70
   7.0062         61
   7.0247         81
   7.0433         80
   7.0619         87
   7.0805         85
   7.0990         89
   7.1176         74
   7.1362         87
   7.1548         85
   7.1733         88
   7.1919         66
   7.2105         87
   7.2291         67
   7.2476         82
   7.2662         69
   7.2848         78
   7.3034         72
   7.3220         75
   7.3405         86
   7.3591         77
   7.3777         67
   7.3963         88
   7.4148         67
   7.4334         85
   7.4520         90
   7.4706         87
   7.4891         65
   7.5077         78
   7.5263         86
   7.5449         83
   7.5634         78
   7.5820         86
   7.6006         88
   7.6192         91
   7.6377         89
   7.6563         77
   7.6749         84
   7.6935         73
   7.7120         82
   7.7306         83
   7.7492         84
   7.7678         80
   7.7863         77
   7.8049         75
   7.8235         95
   7.8421         75
   7.8606         96
   7.8792         83
   7.8978         94
   7.9164        102
   7.9349         95
   7.9535         93
   7.9721         88
   7.9907         91
   8.0092        111
   8.0278         83
   8.0464         90
   8.0650         91
   8.0835         89
   8.1021        101
   8.1207         85
   8.1393         87
   8.1579         89
   8.1764         88
   8.1950        119
   8.2136        103
   8.2322         99
   8.2507         99
   8.2693         97
   8.2879         85
   8.3065         90
   8.3250        117
   8.3436        108
   8.3622         78
   8.3808         82
   8.3993         84
   8.4179         95
   8.4365         80
   8.4551         93
   8.4736         75
   8.4922         89
   8.5108         99
   8.5294         95
   8.5479        108
   8.5665         92
   8.5851         92
   8.6037        108
   8.6222         99
   8.6408        115
   8.6594        108
   8.6780        116
   8.6965        110
   8.7151         84
   8.7337         93
   8.7523        111
   8.7708        111
   8.7894         96
   8.8080        111
   8.8266        109
   8.8451        111
   8.8637        102
   8.8823        102
   8.9009         90
   8.9195         92
   8.9380        103
   8.9566        125
   8.9752         93
   8.9938        117
   9.0123        117
   9.0309        103
   9.0495        119
   9.0681         97
   9.0866        108
   9.1052        105
   9.1238        137
   9.1424        100
   9.1609         98
   9.1795        103
   9.1981         94
   9.2167        128
   9.2352        120
   9.2538        104
   9.2724         99
   9.2910        100
   9.3095        101
   9.3281        120
   9.3467        119
   9.3653        107
   9.3838        101
   9.4024        107
   9.4210        116
   9.4396        105
   9.4581        109
   9.4767        103
   9.4953        123
   9.5139        105
   9.5324        113
   9.5510         91
   9.5696         93
   9.5882        103
   9.6067         98
   9.6253        114
   9.6439        118
   9.6625        102
   9.6811        100
   9.6996        144
   9.7182        115
   9.7368        122
   9.7554        119
   9.7739        102
   9.7925        101
   9.8111        104
   9.8297        122
   9.8482        119
   9.8668        142
   9.8854        128
   9.9040        115
   9.9225        111
   9.9411        124
   9.9597        120
   9.9783        112
   9.9968        122
  10.0154        105
  10.0340        105
  10.0526        121
  10.0711        126
  10.0897        114
  10.1083        118
  10.1269        120
  10.1454        110
  10.1640        105
  10.1826        114
  10.2012        123
  10.2197        110
  10.2383        109
  10.2569        105
  10.2755        102
  10.2940        124
  10.3126        116
  10.3312        103
  10.3498        101
  10.3683        105
  10.3869        101
  10.4055        129
  10.4241        120
  10.4427        128
  10.4612        110
  10.4798        115
  10.4984        132
  10.5170        113
  10.5355         91
  10.5541        121
  10.5727        100
  10.5913        111
  10.6098         85
  10.6284        120
  10.6470        131
  10.6656        120
  10.6841        113
  10.7027         98
  10.7213        107
  10.7399        134
  10.7584        118
  10.7770        118
  10.7956        119
  10.8142        113
  10.8327        119
  10.8513        122
  10.8699        123
  10.8885        142
  10.9070        132
  10.9256        108
  10.9442        132
  10.9628        111
  10.9813        104
  10.9999        130
  11.0185        117
  11.0371        117
  11.0556        119
  11.0742        115
  11.0928        122
  11.1114        131
  11.1299        121
  11.1485        123
  11.1671        142
  11.1857        118
  11.2043        130
  11.2228        109
  11.2414        108
  11.2600         99
  11.2786         98
  11.2971        110
  11.3157        106
  11.3343        124
  11.3529        117
  11.3714        118
  11.3900        107
  11.4086        134
  11.4272        131
  11.4457        119
  11.4643        128
  11.4829        120
  11.5015        123
  11.5200        119
  11.5386        132
  11.5572        102
  11.5758        112
  11.5943        125
  11.6129        118
  11.6315        107
  11.6501         99
  11.6686        113
  11.6872        124
  11.7058        106
  11.7244        100
  11.7429        116
  11.7615        123
  11.7801        128
  11.7987        118
  11.8172        121
  11.8358        130
  11.8544        138
  11.8730        116
  11.8915         99
  11.9101        101
  11.9287        119
  11.9473        123
  11.9659        130
  11.9844        136
  12.0030         93
  12.0216         92
  12.0402        130
  12.0587         97
  12.0773         99
  12.0959        114
  12.1145        114
  12.1330        117
  12.1516        111
  12.1702        108
  12.1888        111
  12.2073        105
  12.2259        111
  12.2445        123
  12.2631        106
  12.2816        108
  12.3002         90
  12.3188        145
  12.3374        109
  12.3559        110
  12.3745        101
  12.3931         88
  12.4117        104
  12.4302        107
  12.4488        108
  12.4674        117
  12.4860        119
  12.5045        119
  12.5231        107
  12.5417         98
  12.5603        105
  12.5788        124
  12.5974        109
  12.6160        128
  12.6346         95
  12.6531        120
  12.6717        109
  12.6903         92
  12.7089        120
  12.7274        115
  12.7460         92
  12.7646        113
  12.7832        103
  12.8018         97
  12.8203         98
  12.8389        101
  12.8575        119
  12.8761         93
  12.8946        105
  12.9132        121
  12.9318        102
  12.9504         93
  12.9689         99
  12.9875        115
  13.0061         96
  13.0247        104
  13.0432        109
  13.0618        106
  13.0804         99
  13.0990        103
  13.1175        108
  13.1361        130
  13.1547        112
  13.1733        108
  13.1918         89
  13.2104        111
  13.2290         87
  13.2476         95
  13.2661         99
  13.2847         97
  13.3033         95
  13.3219         97
  13.3404         99
  13.3590        102
  13.3776         92
  13.3962         87
  13.4147        108
  13.4333        101
  13.4519        121
  13.4705         95
  13.4890        112
  13.5076         99
  13.5262         98
  13.5448        113
  13.5634         91
  13.5819         86
  13.6005        102
  13.6191         83
  13.6377        100
  13.6562         83
  13.6748         82
  13.6934        111
  13.7120         88
  13.7305         92
  13.7491        112
  13.7677         96
  13.7863         87
  13.8048         81
  13.8234         84
  13.8420        103
  13.8606         94
  13.8791         99
  13.8977         78
  13.9163        107
  13.9349         83
  13.9534         91
  13.9720         90
  13.9906        107
  14.0092         89
  14.0277         82
  14.0463         91
  14.0649        103
  14.0835         79
  14.1020         89
  14.1206         80
  14.1392         82
  14.1578         94
  14.1763         89
  14.1949         79
  14.2135         89
  14.2321         88
  14.2506         76
  14.2692         75
  14.2878         95
  14.3064         74
  14.3250         93
  14.3435         90
  14.3621         92
  14.3807         86
  14.3993         88
  14.4178         86
  14.4364         92
  14.4550        109
  14.4736         80
  14.4921         92
  14.5107         87
  14.5293         86
  14.5479         87
  14.5664         85
  14.5850         76
  14.6036         76
  14.6222         85
  14.6407         91
  14.6593         87
  14.6779         76
  14.6965         80
  14.7150         79
  14.7336         78
  14.7522         97
  14.7708         83
  14.7893         77
  14.8079         79
  14.8265        113
  14.8451         86
  14.8636         79
  14.8822         80
  14.9008         72
  14.9194         70
  14.9379         84
  14.9565         78
  14.9751         67
  14.9937         92
  15.0122        104
  15.0308         77
  15.0494         75
  15.0680         89
  15.0866         72
  15.1051         86
  15.1237         82
  15.1423         87
  15.1609         61
  15.1794         72
  15.1980         73
  15.2166         87
  15.2352         89
  15.2537         76
  15.2723         97
  15.2909         77
  15.3095         69
  15.3280         87
  15.3466         72
  15.3652         91
  15.3838         88
  15.4023         82
  15.4209         86
  15.4395        106
  15.4581         87
  15.4766         77
  15.4952         93
  15.5138         77
  15.5324         74
  15.5509         76
  15.5695         84
  15.5881         90
  15.6067         96
  15.6252         81
  15.6438         79
  15.6624         76
  15.6810         70
  15.6995         79
  15.7181        104
  15.7367         65
  15.7553         97
  15.7738         80
  15.7924         90
  15.8110         95
  15.8296         82
  15.8482         83
  15.8667         84
  15.8853         86
  15.9039         86
  15.9225         83
  15.9410         87
  15.9596         75
  15.9782         95
  15.9968         69
  16.0153         87
  16.0339         98
  16.0525         77
  16.0711         76
  16.0896         74
  16.1082         99
  16.1268         89
  16.1454         88
  16.1639         93
  16.1825         73
  16.2011         70
  16.2197         99
  16.2382         82
  16.2568         93
  16.2754         80
  16.2940         72
  16.3125         88
  16.3311         90
  16.3497         77
  16.3683         85
  16.3868         87
  16.4054         78
  16.4240         68
  16.4426         71
  16.4611         74
  16.4797         80
  16.4983         98
  16.5169         90
  16.5354         89
  16.5540         79
  16.5726         74
  16.5912         74
  16.6097         74
  16.6283         81
  16.6469         82
  16.6655         75
  16.6841         87
  16.7026         99
  16.7212         69
  16.7398         77
  16.7584         86
  16.7769         73
  16.7955         76
  16.8141         72
  16.8327         75
  16.8512         74
  16.8698         62
  16.8884         63
  16.9070         77
  16.9255         85
  16.9441         81
  16.9627         81
  16.9813         86
  16.9998         91
  17.0184         84
  17.0370         72
  17.0556         62
  17.0741         75
  17.0927         83
  17.1113         77
  17.1299         78
  17.1484         79
  17.1670         75
  17.1856         81
  17.2042         73
  17.2227         74
  17.2413         66
  17.2599        102
  17.2785         76
  17.2970         66
  17.3156         63
  17.3342         75
  17.3528         83
  17.3713         87
  17.3899         70
  17.4085         81
  17.4271         68
  17.4457         82
  17.4642         84
  17.4828         80
  17.5014         83
  17.5200         98
  17.5385         83
  17.5571         80
  17.5757         76
  17.5943         77
  17.6128         93
  17.6314         85
  17.6500         82
  17.6686         85
  17.6871         76
  17.7057         85
  17.7243         69
  17.7429         67
  17.7614         80
  17.7800         74
  17.7986         83
  17.8172         69
  17.8357         87
  17.8543         79
  17.8729         90
  17.8915         87
  17.9100         96
  17.9286         77
  17.9472         68
  17.9658         79
  17.9843         70
  18.0029         90
  18.0215         94
  18.0401         72
  18.0586         77
  18.0772         85
  18.0958         80
  18.1144         95
  18.1329         73
  18.1515         67
  18.1701         88
  18.1887         74
  18.2073         83
  18.2258         71
  18.2444         75
  18.2630         91
  18.2816         72
  18.3001         75
  18.3187         87
  18.3373         83
  18.3559         88
  18.3744         88
  18.3930         70
  18.4116         85
  18.4302         89
  18.4487         77
  18.4673         78
  18.4859         75
  18.5045         94
  18.5230         83
  18.5416         84
  18.5602         74
  18.5788         71
  18.5973         84
  18.6159        102
  18.6345         84
  18.6531         68
  18.6716         88
  18.6902         82
  18.7088         70
  18.7274         80
  18.7459         76
  18.7645         87
  18.7831         76
  18.8017         77
  18.8202         78
  18.8388         83
  18.8574         96
  18.8760         85
  18.8945         77
  18.9131         83
  18.9317         65
  18.9503         90
  18.9689         65
  18.9874         93
  19.0060         78
  19.0246         81
  19.0432         81
  19.0617         99
  19.0803         69
  19.0989         94
  19.1175         88
  19.1360         77
  19.1546         86
  19.1732         88
  19.1918        100
  19.2103         84
  19.2289         92
  19.2475         68
  19.2661         76
  19.2846         86
  19.3032         81
  19.3218         74
  19.3404         77
  19.3589         72
  19.3775         77
  19.3961         84
  19.4147         88
  19.4332         78
  19.4518         86
  19.4704         84
  19.4890         82
  19.5075         91
  19.5261         95
  19.5447         81
  19.5633         86
  19.5818         82
  19.6004         93
  19.6190         74
  19.6376         86
  19.6561         81
  19.6747         99
  19.6933         79
  19.7119        104
  19.7305         87
  19.7490         94
  19.7676         69
  19.7862         72
  19.8048         74
  19.8233         97
  19.8419         92
  19.8605         81
  19.8791         89
  19.8976         82
  19.9162         95
  19.9348         99
  19.9534        102
  19.9719         72
  19.9905         87
  20.0091         90
  20.0277         89
  20.0462         90
  20.0648         84
  20.0834         87
  20.1020         78
  20.1205         89
  20.1391         86
  20.1577        102
  20.1763         91
  20.1948         85
  20.2134         88
  20.2320         81
  20.2506         99
  20.2691         87
  20.2877         84
  20.3063         86
  20.3249        100
  20.3434         90
  20.3620         90
  20.3806         71
  20.3992         85
  20.4177         96
  20.4363        103
  20.4549         98
  20.4735         96
  20.4921        108
  20.5106         70
  20.5292         80
  20.5478         90
  20.5664         98
  20.5849         82
  20.6035         93
  20.6221         89
  20.6407         80
  20.6592         96
  20.6778         98
  20.6964         97
  20.7150         80
  20.7335         97
  20.7521         98
  20.7707         95
  20.7893         79
  20.8078        102
  20.8264         79
  20.8450         93
  20.8636         99
  20.8821         89
  20.9007         93
  20.9193         93
  20.9379        102
  20.9564         86
  20.9750         92
  20.9936         97
  21.0122         80
  21.0307        109
  21.0493         81
  21.0679         91
  21.0865         96
  21.1050         95
  21.1236        105
  21.1422        100
  21.1608        138
  21.1793        120
  21.1979        153
  21.2165        170
  21.2351        159
  21.2537        146
  21.2722        153
  21.2908        145
  21.3094        161
  21.3280        187
  21.3465        247
  21.3651        251
  21.3837        208
  21.4023        178
  21.4208        163
  21.4394        131
  21.4580        111
  21.4766        111
  21.4951         86
  21.5137         99
  21.5323        123
  21.5509         94
  21.5694         96
  21.5880        107
  21.6066        100
  21.6252         99
  21.6437        111
  21.6623         95
  21.6809         96
  21.6995         93
  21.7180        102
  21.7366         99
  21.7552         88
  21.7738         98
  21.7923         99
  21.8109         99
  21.8295         99
  21.8481         85
  21.8666        102
  21.8852        104
  21.9038        122
  21.9224         98
  21.9409        121
  21.9595         90
  21.9781         93
  21.9967         94
  22.0152         93
  22.0338         94
  22.0524         93
  22.0710         93
  22.0896        101
  22.1081        109
  22.1267         90
  22.1453         93
  22.1639        108
  22.1824        100
  22.2010         79
  22.2196         94
  22.2382         93
  22.2567        100
  22.2753         71
  22.2939         92
  22.3125        110
  22.3310         97
  22.3496         93
  22.3682         97
  22.3868        100
  22.4053         90
  22.4239         88
  22.4425        110
  22.4611        101
  22.4796         99
  22.4982         65
  22.5168         84
  22.5354         92
  22.5539        101
  22.5725        100
  22.5911        117
  22.6097         96
  22.6282         90
  22.6468         85
  22.6654         86
  22.6840         86
  22.7025         94
  22.7211        104
  22.7397         90
  22.7583        104
  22.7768         97
  22.7954         96
  22.8140        103
  22.8326        126
  22.8512         97
  22.8697        100
  22.8883         98
  22.9069         93
  22.9255        105
  22.9440         87
  22.9626        105
  22.9812        108
  22.9998        111
  23.0183        107
  23.0369         91
  23.0555         89
  23.0741         95
  23.0926         99
  23.1112         92
  23.1298        102
  23.1484        110
  23.1669         93
  23.1855         98
  23.2041        100
  23.2227        105
  23.2412         95
  23.2598        100
  23.2784         93
  23.2970         90
  23.3155        102
  23.3341        107
  23.3527         92
  23.3713        109
  23.3898         92
  23.4084        103
  23.4270        127
  23.4456         89
  23.4641        113
  23.4827        114
  23.5013         90
  23.5199         98
  23.5384        105
  23.5570        101
  23.5756         98
  23.5942         94
  23.6128        108
  23.6313        105
  23.6499        106
  23.6685        107
  23.6871         96
  23.7056         96
  23.7242        103
  23.7428        108
  23.7614        108
  23.7799        111
  23.7985        105
  23.8171        106
  23.8357        128
  23.8542         96
  23.8728        103
  23.8914         94
  23.9100        102
  23.9285         96
  23.9471        110
  23.9657        112
  23.9843         97
  24.0028         96
  24.0214        102
  24.0400        111
  24.0586         94
  24.0771        106
  24.0957        104
  24.1143         97
  24.1329        119
  24.1514        113
  24.1700         83
  24.1886        106
  24.2072        102
  24.2257        100
  24.2443        105
  24.2629        113
  24.2815        108
  24.3000        100
  24.3186        132
  24.3372        104
  24.3558         92
  24.3744        106
  24.3929         94
  24.4115        101
  24.4301         86
  24.4487        106
  24.4672        102
  24.4858         96
  24.5044         92
  24.5230        108
  24.5415         97
  24.5601        108
  24.5787        105
  24.5973         87
  24.6158        105
  24.6344        110
  24.6530        100
  24.6716        108
  24.6901        107
  24.7087         95
  24.7273         96
  24.7459         82
  24.7644         97
  24.7830         87
  24.8016        113
  24.8202        118
  24.8387        106
  24.8573         93
  24.8759        106
  24.8945         92
  24.9130         98
  24.9316         99
  24.9502        105
  24.9688        111
  24.9873        105
  25.0059         93
  25.0245         97
  25.0431         97
  25.0616         87
  25.0802         68
  25.0988        122
  25.1174         96
  25.1360         88
  25.1545         82
  25.1731        109
  25.1917        114
  25.2103         84
  25.2288         80
  25.2474         89
  25.2660        105
  25.2846        107
  25.3031         87
  25.3217         95
  25.3403         88
  25.3589         91
  25.3774         94
  25.3960         93
  25.4146         91
  25.4332        112
  25.4517         89
  25.4703        104
  25.4889         94
  25.5075         99
  25.5260         90
  25.5446        109
  25.5632         86
  25.5818        105
  25.6003         87
  25.6189         95
  25.6375         94
  25.6561         94
  25.6746         95
  25.6932        106
  25.7118        106
  25.7304        100
  25.7489        101
  25.7675        109
  25.7861         97
  25.8047        103
  25.8232         98
  25.8418         81
  25.8604         86
  25.8790         81
  25.8976         73
  25.9161         96
  25.9347        114
  25.9533         90
  25.9719        109
  25.9904        103
  26.0090        122
  26.0276        113
  26.0462         81
  26.0647         96
  26.0833         82
  26.1019        104
  26.1205         77
  26.1390         84
  26.1576         77
  26.1762         81
  26.1948        129
  26.2133         94
  26.2319         68
  26.2505         83
  26.2691        106
  26.2876         94
  26.3062         97
  26.3248        112
  26.3434         83
  26.3619         96
  26.3805         93
  26.3991         98
  26.4177         65
  26.4362         81
  26.4548        106
  26.4734         78
  26.4920         93
  26.5105        103
  26.5291        120
  26.5477         88
  26.5663        107
  26.5848         96
  26.6034         84
  26.6220         95
  26.6406         93
  26.6591         90
  26.6777         94
  26.6963        100
  26.7149         89
  26.7335         85
  26.7520         97
  26.7706         77
  26.7892         82
  26.8078         93
  26.8263         88
  26.8449         89
  26.8635         96
  26.8821        111
  26.9006        101
  26.9192        102
  26.9378        109
  26.9564         87
  26.9749         90
  26.9935         89
  27.0121         92
  27.0307         77
  27.0492         92
  27.0678         96
  27.0864        101
  27.1050         98
  27.1235        100
  27.1421         92
  27.1607         97
  27.1793        105
  27.1978        131
  27.2164        131
  27.2350        120
  27.2536         97
  27.2721        111
  27.2907        109
  27.3093         95
  27.3279         94
  27.3464        112
  27.3650         77
  27.3836         91
  27.4022         89
  27.4207         80
  27.4393         81
  27.4579        100
  27.4765         86
  27.4951         90
  27.5136         91
  27.5322         82
  27.5508         90
  27.5694         85
  27.5879         87
  27.6065         86
  27.6251         79
  27.6437         85
  27.6622         90
  27.6808         91
  27.6994         97
  27.7180         92
  27.7365         85
  27.7551         83
  27.7737         93
  27.7923         77
  27.8108         80
  27.8294         95
  27.8480         70
  27.8666         82
  27.8851         70
  27.9037         79
  27.9223         87
  27.9409         85
  27.9594         84
  27.9780         69
  27.9966         94
  28.0152         83
  28.0337         80
  28.0523         92
  28.0709         76
  28.0895         94
  28.1080         78
  28.1266         86
  28.1452         85
  28.1638         84
  28.1823         91
  28.2009         84
  28.2195         81
  28.2381         72
  28.2567         75
  28.2752         73
  28.2938        104
  28.3124         78
  28.3310         97
  28.3495         89
  28.3681        104
  28.3867         82
  28.4053         69
  28.4238         79
  28.4424         88
  28.4610         91
  28.4796         92
  28.4981         89
  28.5167         87
  28.5353         90
  28.5539         85
  28.5724         78
  28.5910         84
  28.6096         75
  28.6282         83
  28.6467         90
  28.6653         75
  28.6839         94
  28.7025        100
  28.7210         78
  28.7396         78
  28.7582         85
  28.7768         92
  28.7953         86
  28.8139         85
  28.8325         89
  28.8511         67
  28.8696         78
  28.8882         78
  28.9068         77
  28.9254         77
  28.9439         88
  28.9625         73
  28.9811         88
  28.9997         68
  29.0183         96
  29.0368         80
  29.0554         84
  29.0740         60
  29.0926         80
  29.1111         73
  29.1297         69
  29.1483         78
  29.1669         74
  29.1854         83
  29.2040         73
  29.2226         80
  29.2412         67
  29.2597        102
  29.2783         54
  29.2969         69
  29.3155         80
  29.3340         83
  29.3526         61
  29.3712         74
  29.3898         67
  29.4083         70
  29.4269        101
  29.4455         79
  29.4641         91
  29.4826         80
  29.5012         82
  29.5198         58
  29.5384         86
  29.5569         85
  29.5755         81
  29.5941         62
  29.6127         74
  29.6312         75
  29.6498         72
  29.6684         76
  29.6870         77
  29.7055         75
  29.7241         73
  29.7427         79
  29.7613         90
  29.7799         55
  29.7984         80
  29.8170         84
  29.8356         78
  29.8542         70
  29.8727         60
  29.8913         69
  29.9099         83
  29.9285         68
  29.9470         70
  29.9656         82
  29.9842         62
  30.0028         89
  30.0213         75
  30.0399         88
  30.0585         86
  30.0771         83
  30.0956         66
  30.1142         78
  30.1328         72
  30.1514         69
  30.1699         74
  30.1885         98
  30.2071         97
  30.2257         81
  30.2442         68
  30.2628         95
  30.2814         72
  30.3000         73
  30.3185        102
  30.3371         90
  30.3557        114
  30.3743        149
  30.3928        187
  30.4114        152
  30.4300        118
  30.4486        115
  30.4671        131
  30.4857         97
  30.5043        101
  30.5229         89
  30.5415         76
  30.5600         80
  30.5786         83
  30.5972         81
  30.6158         67
  30.6343         86
  30.6529         77
  30.6715         73
  30.6901         69
  30.7086         85
  30.7272         64
  30.7458         68
  30.7644         72
  30.7829         86
  30.8015         75
  30.8201         61
  30.8387         70
  30.8572         69
  30.8758         63
  30.8944         68
  30.9130         60
  30.9315         63
  30.9501         65
  30.9687         84
  30.9873         58
  31.0058         81
  31.0244         67
  31.0430         56
  31.0616         61
  31.0801         70
  31.0987         68
  31.1173         85
  31.1359         71
  31.1544         64
  31.1730         71
  31.1916         61
  31.2102         62
  31.2287         75
  31.2473         52
  31.2659         61
  31.2845         63
  31.3030         82
  31.3216         66
  31.3402         63
  31.3588         74
  31.3774         62
  31.3959         67
  31.4145         71
  31.4331         69
  31.4517         78
  31.4702         67
  31.4888         66
  31.5074         73
  31.5260         67
  31.5445         68
  31.5631         72
  31.5817         75
  31.6003         77
  31.6188         83
  31.6374         72
  31.6560         65
  31.6746         62
  31.6931         82
  31.7117         56
  31.7303         69
  31.7489         64
  31.7674         68
  31.7860         50
  31.8046         69
  31.8232         63
  31.8417         61
  31.8603         67
  31.8789         55
  31.8975         59
  31.9160         65
  31.9346         53
  31.9532         59
  31.9718         46
  31.9903         56
  32.0089         62
  32.0275         67
  32.0461         68
  32.0646         63
  32.0832         53
  32.1018         47
  32.1204         54
  32.1390         79
  32.1575         54
  32.1761         63
  32.1947         70
  32.2133         84
  32.2318         66
  32.2504         55
  32.2690         56
  32.2876         62
  32.3061         60
  32.3247         69
  32.3433         64
  32.3619         56
  32.3804         56
  32.3990         67
  32.4176         65
  32.4362         60
  32.4547         69
  32.4733         71
  32.4919         60
  32.5105         70
  32.5290         66
  32.5476         80
  32.5662         66
  32.5848         88
  32.6033         59
  32.6219         68
  32.6405         57
  32.6591         55
  32.6776         68
  32.6962         70
  32.7148         46
  32.7334         64
  32.7519         59
  32.7705         55
  32.7891         56
  32.8077         63
  32.8262         53
  32.8448         42
  32.8634         61
  32.8820         65
  32.9006         65
  32.9191         58
  32.9377         55
  32.9563         70
  32.9749         53
  32.9934         58
  33.0120         63
  33.0306         54
  33.0492         65
  33.0677         62
  33.0863         70
  33.1049         52
  33.1235         62
  33.1420         52
  33.1606         50
  33.1792         59
  33.1978         53
  33.2163         52
  33.2349         52
  33.2535         70
  33.2721         56
  33.2906         54
  33.3092         59
  33.3278         60
  33.3464         68
  33.3649         52
  33.3835         70
  33.4021         58
  33.4207         57
  33.4392         60
  33.4578         45
  33.4764         62
  33.4950         64
  33.5135         49
  33.5321         58
  33.5507         65
  33.5693         65
  33.5878         46
  33.6064         58
  33.6250         61
  33.6436         63
  33.6622         59
  33.6807         49
  33.6993         52
  33.7179         54
  33.7365         53
  33.7550         61
  33.7736         65
  33.7922         49
  33.8108         49
  33.8293         57
  33.8479         59
  33.8665         64
  33.8851         47
  33.9036         71
  33.9222         59
  33.9408         71
  33.9594         48
  33.9779         50
  33.9965         63
  34.0151         44
  34.0337         53
  34.0522         62
  34.0708         55
  34.0894         57
  34.1080         48
  34.1265         52
  34.1451         52
  34.1637         63
  34.1823         49
  34.2008         60
  34.2194         54
  34.2380         54
  34.2566         57
  34.2751         59
  34.2937         54
  34.3123         61
  34.3309         51
  34.3494         49
  34.3680         50
  34.3866         59
  34.4052         49
  34.4238         58
  34.4423         39
  34.4609         52
  34.4795         56
  34.4981         55
  34.5166         61
  34.5352         56
  34.5538         50
  34.5724         73
  34.5909         53
  34.6095         49
  34.6281         63
  34.6467         43
  34.6652         60
  34.6838         53
  34.7024         57
  34.7210         62
  34.7395         80
  34.7581         76
  34.7767         68
  34.7953         77
  34.8138         81
  34.8324         65
  34.8510         73
  34.8696         69
  34.8881         66
  34.9067         57
  34.9253         44
  34.9439         57
  34.9624         47
  34.9810         63
  34.9996         49
  35.0182         58
  35.0367         55
  35.0553         54
  35.0739         51
  35.0925         52
  35.1110         62
  35.1296         52
  35.1482         47
  35.1668         62
  35.1854         46
  35.2039         52
  35.2225         34
  35.2411         46
  35.2597         49
  35.2782         54
  35.2968         48
  35.3154         36
  35.3340         61
  35.3525         50
  35.3711         51
  35.3897         55
  35.4083         58
  35.4268         45
  35.4454         53
  35.4640         50
  35.4826         42
  35.5011         57
  35.5197         54
  35.5383         49
  35.5569         39
  35.5754         48
  35.5940         48
  35.6126         59
  35.6312         52
  35.6497         48
  35.6683         51
  35.6869         42
  35.7055         43
  35.7240         41
  35.7426         46
  35.7612         47
  35.7798         50
  35.7983         37
  35.8169         50
  35.8355         35
  35.8541         47
  35.8726         51
  35.8912         47
  35.9098         61
  35.9284         50
  35.9469         47
  35.9655         55
  35.9841         41
  36.0027         47
  36.0213         42
  36.0398         55
  36.0584         49
  36.0770         45
  36.0956         46
  36.1141         44
  36.1327         39
  36.1513         45
  36.1699         45
  36.1884         48
  36.2070         60
  36.2256         43
  36.2442         50
  36.2627         54
  36.2813         47
  36.2999         54
  36.3185         53
  36.3370         53
  36.3556         51
  36.3742         42
  36.3928         53
  36.4113         47
  36.4299         49
  36.4485         41
  36.4671         51
  36.4856         45
  36.5042         42
  36.5228         51
  36.5414         42
  36.5599         40
  36.5785         40
  36.5971         45
  36.6157         45
  36.6342         44
  36.6528         45
  36.6714         54
  36.6900         67
  36.7085         55
  36.7271         50
  36.7457         39
  36.7643         43
  36.7829         48
  36.8014         48
  36.8200         49
  36.8386         44
  36.8572         42
  36.8757         40
  36.8943         52
  36.9129         53
  36.9315         51
  36.9500         56
  36.9686         43
  36.9872         55
  37.0058         51
  37.0243         52
  37.0429         44
  37.0615         41
  37.0801         41
  37.0986         47
  37.1172         53
  37.1358         44
  37.1544         42
  37.1729         46
  37.1915         40
  37.2101         59
  37.2287         46
  37.2472         47
  37.2658         41
  37.2844         61
  37.3030         54
  37.3215         57
  37.3401         46
  37.3587         54
  37.3773         45
  37.3958         45
  37.4144         60
  37.4330         70
  37.4516         66
  37.4701         62
  37.4887         44
  37.5073         51
  37.5259         65
  37.5445         69
  37.5630         60
  37.5816         53
  37.6002         43
  37.6188         36
  37.6373         44
  37.6559         59
  37.6745         48
  37.6931         42
  37.7116         48
  37.7302         52
  37.7488         42
  37.7674         47
  37.7859         47
  37.8045         40
  37.8231         57
  37.8417         50
  37.8602         48
  37.8788         31
  37.8974         47
  37.9160         39
  37.9345         45
  37.9531         42
  37.9717         70
  37.9903         37
  38.0088         48
  38.0274         44
  38.0460         48
  38.0646         39
  38.0831         47
  38.1017         39
  38.1203         41
  38.1389         46
  38.1574         58
  38.1760         44
  38.1946         40
  38.2132         36
  38.2317         35
  38.2503         45
  38.2689         36
  38.2875         54
  38.3061         48
  38.3246         39
  38.3432         33
  38.3618         39
  38.3804         29
  38.3989         34
  38.4175         44
  38.4361         42
  38.4547         46
  38.4732         44
  38.4918         44
  38.5104         29
  38.5290         47
  38.5475         44
  38.5661         42
  38.5847         47
  38.6033         36
  38.6218         53
  38.6404         34
  38.6590         34
  38.6776         40
  38.6961         37
  38.7147         31
  38.7333         47
  38.7519         36
  38.7704         45
  38.7890         50
  38.8076         38
  38.8262         39
  38.8447         28
  38.8633         48
  38.8819         46
  38.9005         56
  38.9190         50
  38.9376         40
  38.9562         53
  38.9748         40
  38.9933         32
  39.0119         43
  39.0305         52
  39.0491         44
  39.0677         33
  39.0862         41
  39.1048         44
  39.1234         41
  39.1420         43
  39.1605         29
  39.1791         37
  39.1977         44
  39.2163         42
  39.2348         38
  39.2534         47
  39.2720         41
  39.2906         42
  39.3091         41
  39.3277         39
  39.3463         31
  39.3649         41
  39.3834         43
  39.4020         33
  39.4206         43
  39.4392         43
  39.4577         49
  39.4763         28
  39.4949         39
  39.5135         41
  39.5320         37
  39.5506         47
  39.5692         47
  39.5878         31
  39.6063         52
  39.6249         42
  39.6435         31
  39.6621         47
  39.6806         43
  39.6992         39
  39.7178         47
  39.7364         33
  39.7549         37
  39.7735         59
  39.7921         33
  39.8107         34
  39.8293         36
  39.8478         33
  39.8664         41
  39.8850         47
  39.9036         44
  39.9221         30
  39.9407         30
  39.9593         35
  39.9779         31
  39.9964         37
  40.0150         37
  40.0336         38
  40.0522         37
  40.0707         49
  40.0893         44
  40.1079         40
  40.1265         40
  40.1450         39
  40.1636         37
  40.1822         42
  40.2008         32
  40.2193         45
  40.2379         46
  40.2565         33
  40.2751         43
  40.2936         42
  40.3122         41
  40.3308         51
  40.3494         39
  40.3679         43
  40.3865         34
  40.4051         35
  40.4237         41
  40.4422         39
  40.4608         47
  40.4794         32
  40.4980         41
  40.5165         39
  40.5351         38
  40.5537         41
  40.5723         38
  40.5908         31
  40.6094         38
  40.6280         31
  40.6466         46
  40.6652         42
  40.6837         29
  40.7023         44
  40.7209         36
  40.7395         25
  40.7580         43
  40.7766         37
  40.7952         28
  40.8138         38
  40.8323         33
  40.8509         37
  40.8695         36
  40.8881         30
  40.9066         31
  40.9252         45
  40.9438         53
  40.9624         45
  40.9809         40
  40.9995         43
  41.0181         40
  41.0367         39
  41.0552         31
  41.0738         34
  41.0924         42
  41.1110         38
  41.1295         33
  41.1481         32
  41.1667         37
  41.1853         31
  41.2038         43
  41.2224         36
  41.2410         42
  41.2596         32
  41.2781         34
  41.2967         36
  41.3153         35
  41.3339         47
  41.3524         33
  41.3710         37
  41.3896         36
  41.4082         34
  41.4268         35
  41.4453         30
  41.4639         36
  41.4825         38
  41.5011         43
  41.5196         42
  41.5382         39
  41.5568         46
  41.5754         39
  41.5939         42
  41.6125         37
  41.6311         38
  41.6497         42
  41.6682         37
  41.6868         37
  41.7054         31
  41.7240         47
  41.7425         39
  41.7611         39
  41.7797         36
  41.7983         40
  41.8168         39
  41.8354         32
  41.8540         33
  41.8726         38
  41.8911         34
  41.9097         39
  41.9283         45
  41.9469         43
  41.9654         40
  41.9840         39
  42.0026         34
  42.0212         30
  42.0397         40
  42.0583         45
  42.0769         36
  42.0955         43
  42.1140         44
  42.1326         40
  42.1512         44
  42.1698         40
  42.1884         37
  42.2069         34
  42.2255         39
  42.2441         45
  42.2627         43
  42.2812         51
  42.2998         36
  42.3184         30
  42.3370         38
  42.3555         53
  42.3741         31
  42.3927         48
  42.4113         50
  42.4298         29
  42.4484         37
  42.4670         33
  42.4856         28
  42.5041         40
  42.5227         36
  42.5413         38
  42.5599         27
  42.5784         27
  42.5970         32
  42.6156         36
  42.6342         43
  42.6527         36
  42.6713         43
  42.6899         38
  42.7085         35
  42.7270         29
  42.7456         31
  42.7642         41
  42.7828         35
  42.8013         45
  42.8199         37
  42.8385         35
  42.8571         42
  42.8756         46
  42.8942         44
  42.9128         41
  42.9314         20
  42.9500         31
  42.9685         28
  42.9871         33
  43.0057         36
  43.0243         49
  43.0428         48
  43.0614         36
  43.0800         41
  43.0986         35
  43.1171         36
  43.1357         44
  43.1543         33
  43.1729         38
  43.1914         34
  43.2100         46
  43.2286         34
  43.2472         43
  43.2657         42
  43.2843         38
  43.3029         32
  43.3215         48
  43.3400         59
  43.3586         38
  43.3772         35
  43.3958         37
  43.4143         33
  43.4329         30
  43.4515         49
  43.4701         42
  43.4886         67
  43.5072         80
  43.5258         62
  43.5444         48
  43.5629         47
  43.5815         34
  43.6001         48
  43.6187         48
  43.6372         51
  43.6558         42
  43.6744         43
  43.6930         34
  43.7116         34
  43.7301         32
  43.7487         43
  43.7673         36
  43.7859         26
  43.8044         34
  43.8230         34
  43.8416         42
  43.8602         40
  43.8787         53
  43.8973         35
  43.9159         41
  43.9345         50
  43.9530         28
  43.9716         27
  43.9902         48
  44.0088         25
  44.0273         30
  44.0459         30
  44.0645         44
  44.0831         45
  44.1016         38
  44.1202         41
  44.1388         49
  44.1574         36
  44.1759         39
  44.1945         40
  44.2131         39
  44.2317         43
  44.2502         37
  44.2688         36
  44.2874         31
  44.3060         32
  44.3245         31
  44.3431         47
  44.3617         34
  44.3803         34
  44.3988         45
  44.4174         34
  44.4360         41
  44.4546         36
  44.4732         25
  44.4917         37
  44.5103         28
  44.5289         32
  44.5475         47
  44.5660         54
  44.5846         41
  44.6032         40
  44.6218         37
  44.6403         37
  44.6589         43
  44.6775         42
  44.6961         38
  44.7146         41
  44.7332         39
  44.7518         30
  44.7704         30
  44.7889         25
  44.8075         46
  44.8261         41
  44.8447         38
  44.8632         31
  44.8818         25
  44.9004         36
  44.9190         40
  44.9375         38
  44.9561         34
  44.9747         39
  44.9933         36
  45.0118         32
  45.0304         35
  45.0490         33
  45.0676         29
  45.0861         43
  45.1047         25
  45.1233         30
  45.1419         32
  45.1604         29
  45.1790         39
  45.1976         40
  45.2162         36
  45.2347         44
  45.2533         35
  45.2719         30
  45.2905         41
  45.3091         35
  45.3276         35
  45.3462         50
  45.3648         32
  45.3834         36
  45.4019         38
  45.4205         28
  45.4391         41
  45.4577         35
  45.4762         44
  45.4948         36
  45.5134         27
  45.5320         29
  45.5505         24
  45.5691         32
  45.5877         37
  45.6063         47
  45.6248         33
  45.6434         30
  45.6620         29
  45.6806         38
  45.6991         25
  45.7177         27
  45.7363         27
  45.7549         39
  45.7734         43
  45.7920         35
  45.8106         28
  45.8292         21
  45.8477         36
  45.8663         40
  45.8849         36
  45.9035         36
  45.9220         31
  45.9406         41
  45.9592         38
  45.9778         27
  45.9963         27
  46.0149         17
  46.0335         31
  46.0521         18
  46.0707         36
  46.0892         38
  46.1078         25
  46.1264         30
  46.1450         34
  46.1635         33
  46.1821         21
  46.2007         27
  46.2193         40
  46.2378         36
  46.2564         26
  46.2750         34
  46.2936         34
  46.3121         30
  46.3307         44
  46.3493         36
  46.3679         33
  46.3864         28
  46.4050         24
  46.4236         34
  46.4422         27
  46.4607         24
  46.4793         30
  46.4979         40
  46.5165         28
  46.5350         36
  46.5536         28
  46.5722         46
  46.5908         37
  46.6093         38
  46.6279         28
  46.6465         40
  46.6651         46
  46.6836         26
  46.7022         28
  46.7208         28
  46.7394         25
  46.7579         28
  46.7765         38
  46.7951         26
  46.8137         26
  46.8323         29
  46.8508         33
  46.8694         39
  46.8880         33
  46.9066         42
  46.9251         32
  46.9437         40
  46.9623         34
  46.9809         20
  46.9994         40
  47.0180         33
  47.0366         37
  47.0552         41
  47.0737         39
  47.0923         31
  47.1109         35
  47.1295         37
  47.1480         39
  47.1666         38
  47.1852         30
  47.2038         31
  47.2223         28
  47.2409         43
  47.2595         29
  47.2781         39
  47.2966         35
  47.3152         33
  47.3338         31
  47.3524         30
  47.3709         43
  47.3895         18
  47.4081         27
  47.4267         38
  47.4452         32
  47.4638         33
  47.4824         27
  47.5010         26
  47.5195         29
  47.5381         37
  47.5567         35
  47.5753         31
  47.5939         25
  47.6124         20
  47.6310         39
  47.6496         38
  47.6682         33
  47.6867         26
  47.7053         31
  47.7239         38
  47.7425         31
  47.7610         29
  47.7796         36
  47.7982         32
  47.8168         29
  47.8353         30
  47.8539         39
  47.8725         30
  47.8911         27
  47.9096         29
  47.9282         16
  47.9468         20
  47.9654         23
  47.9839         34
  48.0025         26
  48.0211         38
  48.0397         27
  48.0582         27
  48.0768         29
  48.0954         32
  48.1140         29
  48.1325         26
  48.1511         21
  48.1697         32
  48.1883         28
  48.2068         32
  48.2254         38
  48.2440         36
  48.2626         34
  48.2811         18
  48.2997         27
  48.3183         29
  48.3369         32
  48.3555         31
  48.3740         24
  48.3926         41
  48.4112         32
  48.4298         37
  48.4483         36
  48.4669         24
  48.4855         35
  48.5041         32
  48.5226         32
  48.5412         29
  48.5598         25
  48.5784         31
  48.5969         32
  48.6155         30
  48.6341         21
  48.6527         32
  48.6712         31
  48.6898         22
  48.7084         23
  48.7270         28
  48.7455         23
  48.7641         31
  48.7827         31
  48.8013         30
  48.8198         21
  48.8384         38
  48.8570         29
  48.8756         34
  48.8941         23
  48.9127         43
  48.9313         49
  48.9499         64
  48.9684         62
  48.9870         52
  49.0056         44
  49.0242         41
  49.0427         35
  49.0613         31
  49.0799         46
  49.0985         55
  49.1171         42
  49.1356         44
  49.1542         41
  49.1728         34
  49.1914         34
  49.2099         25
  49.2285         24
  49.2471         28
  49.2657         35
  49.2842         32
  49.3028         29
  49.3214         24
  49.3400         34
  49.3585         29
  49.3771         30
  49.3957         35
  49.4143         28
  49.4328         28
  49.4514         36
  49.4700         24
  49.4886         40
  49.5071         35
  49.5257         26
  49.5443         28
  49.5629         37
  49.5814         24
  49.6000         34
  49.6186         29
  49.6372         32
  49.6557         27
  49.6743         28
  49.6929         20
  49.7115         31
  49.7300         35
  49.7486         38
  49.7672         28
  49.7858         35
  49.8043         29
  49.8229         31
  49.8415         35
  49.8601         45
  49.8786         33
  49.8972         35
  49.9158         31
  49.9344         26
  49.9530         26
  49.9715         22
  49.9901         31
  50.0087         28
  50.0273         30
  50.0458         40
  50.0644         39
  50.0830         29
  50.1016         31
  50.1201         32
  50.1387         36
  50.1573         27
  50.1759         36
  50.1944         30
  50.2130         30
  50.2316         34
  50.2502         28
  50.2687         32
  50.2873         24
  50.3059         43
  50.3245         40
  50.3430         43
  50.3616         27
  50.3802         19
  50.3988         31
  50.4173         19
  50.4359         30
  50.4545         31
  50.4731         30
  50.4916         37
  50.5102         34
  50.5288         37
  50.5474         25
  50.5659         24
  50.5845         26
  50.6031         25
  50.6217         33
  50.6402         29
  50.6588         26
  50.6774         35
  50.6960         30
  50.7146         28
  50.7331         32
  50.7517         31
  50.7703         34
  50.7889         35
  50.8074         27
  50.8260         29
  50.8446         24
  50.8632         39
  50.8817         26
  50.9003         28
  50.9189         38
  50.9375         28
  50.9560         37
  50.9746         29
  50.9932         16
  51.0118         25
  51.0303         32
  51.0489         31
  51.0675         31
  51.0861         35
  51.1046         29
  51.1232         31
  51.1418         31
  51.1604         32
  51.1789         32
  51.1975         32
  51.2161         27
  51.2347         38
  51.2532         28
  51.2718         29
  51.2904         30
  51.3090         26
  51.3275         38
  51.3461         31
  51.3647         27
  51.3833         40
  51.4018         35
  51.4204         31
  51.4390         32
  51.4576         47
  51.4762         30
  51.4947         31
  51.5133         37
  51.5319         31
  51.5505         41
  51.5690         35
  51.5876         33
  51.6062         35
  51.6248         27
  51.6433         30
  51.6619         30
  51.6805         33
  51.6991         27
  51.7176         32
  51.7362         31
  51.7548         29
  51.7734         30
  51.7919         23
  51.8105         29
  51.8291         34
  51.8477         34
  51.8662         30
  51.8848         28
  51.9034         24
  51.9220         32
  51.9405         23
  51.9591         40
  51.9777         30
  51.9963         17
  52.0148         27
  52.0334         25
  52.0520         26
  52.0706         28
  52.0891         27
  52.1077         23
  52.1263         32
  52.1449         31
  52.1634         23
  52.1820         30
  52.2006         32
  52.2192         28
  52.2378         29
  52.2563         29
  52.2749         32
  52.2935         43
  52.3121         33
  52.3306         26
  52.3492         28
  52.3678         31
  52.3864         31
  52.4049         21
  52.4235         24
  52.4421         29
  52.4607         26
  52.4792         22
  52.4978         24
  52.5164         29
  52.5350         28
  52.5535         32
  52.5721         27
  52.5907         23
  52.6093         29
  52.6278         23
  52.6464         31
  52.6650         24
  52.6836         29
  52.7021         33
  52.7207         24
  52.7393         28
  52.7579         22
  52.7764         25
  52.7950         17
  52.8136         27
  52.8322         36
  52.8507         17
  52.8693         26
  52.8879         41
  52.9065         35
  52.9250         23
  52.9436         34
  52.9622         37
  52.9808         24
  52.9994         28
  53.0179         35
  53.0365         35
  53.0551         29
  53.0737         25
  53.0922         36
  53.1108         26
  53.1294         29
  53.1480         30
  53.1665         32
  53.1851         32
  53.2037         34
  53.2223         33
  53.2408         31
  53.2594         26
  53.2780         26
  53.2966         33
  53.3151         23
  53.3337         19
  53.3523         25
  53.3709         18
  53.3894         29
  53.4080         27
  53.4266         24
  53.4452         31
  53.4637         30
  53.4823         27
  53.5009         23
  53.5195         27
  53.5380         39
  53.5566         31
  53.5752         18
  53.5938         31
  53.6123         29
  53.6309         29
  53.6495         22
  53.6681         36
  53.6866         35
  53.7052         37
  53.7238         24
  53.7424         26
  53.7610         29
  53.7795         26
  53.7981         31
  53.8167         30
  53.8353         28
  53.8538         30
  53.8724         37
  53.8910         32
  53.9096         23
  53.9281         29
  53.9467         38
  53.9653         44
  53.9839         42
  54.0024         34
  54.0210         39
  54.0396         18
  54.0582         27
  54.0767         30
  54.0953         29
  54.1139         31
  54.1325         51
  54.1510         34
  54.1696         27
  54.1882         38
  54.2068         27
  54.2253         30
  54.2439         28
  54.2625         23
  54.2811         27
  54.2996         32
  54.3182         33
  54.3368         33
  54.3554         28
  54.3739         34
  54.3925         28
  54.4111         36
  54.4297         31
  54.4482         28
  54.4668         24
  54.4854         36
  54.5040         26
  54.5225         25
  54.5411         25
  54.5597         37
  54.5783         32
  54.5969         29
  54.6154         31
  54.6340         22
  54.6526         24
  54.6712         35
  54.6897         26
  54.7083         28
  54.7269         27
  54.7455         32
  54.7640         29
  54.7826         24
  54.8012         35
  54.8198         26
  54.8383         26
  54.8569         29
  54.8755         25
  54.8941         21
  54.9126         27
  54.9312         34
  54.9498         31
  54.9684         31
  54.9869         27
  55.0055         30
  55.0241         29
  55.0427         27
  55.0612         35
  55.0798         31
  55.0984         35
  55.1170         37
  55.1355         31
  55.1541         25
  55.1727         33
  55.1913         19
  55.2098         27
  55.2284         25
  55.2470         24
  55.2656         32
  55.2841         22
  55.3027         28
  55.3213         21
  55.3399         32
  55.3585         24
  55.3770         21
  55.3956         18
  55.4142         26
  55.4328         30
  55.4513         36
  55.4699         26
  55.4885         21
  55.5071         26
  55.5256         29
  55.5442         23
  55.5628         27
  55.5814         25
  55.5999         23
  55.6185         34
  55.6371         22
  55.6557         25
  55.6742         38
  55.6928         34
  55.7114         21
  55.7300         23
  55.7485         31
  55.7671         25
  55.7857         19
  55.8043         25
  55.8228         27
  55.8414         24
  55.8600         33
  55.8786         28
  55.8971         31
  55.9157         33
  55.9343         26
  55.9529         23
  55.9714         23
  55.9900         37
  56.0086         27
  56.0272         25
  56.0457         24
  56.0643         22
  56.0829         26
  56.1015         21
  56.1201         32
  56.1386         32
  56.1572         42
  56.1758         32
  56.1944         29
  56.2129         30
  56.2315         33
  56.2501         27
  56.2687         32
  56.2872         28
  56.3058         31
  56.3244         31
  56.3430         22
  56.3615         30
  56.3801         35
  56.3987         27
  56.4173         41
  56.4358         26
  56.4544         32
  56.4730         33
  56.4916         31
  56.5101         26
  56.5287         25
  56.5473         28
  56.5659         31
  56.5844         34
  56.6030         26
  56.6216         28
  56.6402         33
  56.6587         34
  56.6773         26
  56.6959         26
  56.7145         25
  56.7330         34
  56.7516         38
  56.7702         26
  56.7888         29
  56.8073         39
  56.8259         25
  56.8445         31
  56.8631         26
  56.8817         27
  56.9002         26
  56.9188         23
  56.9374         35
  56.9560         21
  56.9745         31
  56.9931         38
  57.0117         21
  57.0303         28
  57.0488         29
  57.0674         29
  57.0860         30
  57.1046         22
  57.1231         34
  57.1417         15
  57.1603         23
  57.1789         19
  57.1974         34
  57.2160         27
  57.2346         31
  57.2532         27
  57.2717         26
  57.2903         23
  57.3089         22
  57.3275         23
  57.3460         25
  57.3646         19
  57.3832         29
  57.4018         31
  57.4203         39
  57.4389         31
  57.4575         18
  57.4761         27
  57.4946         37
  57.5132         33
  57.5318         27
  57.5504         29
  57.5689         31
  57.5875         25
  57.6061         30
  57.6247         35
  57.6433         26
  57.6618         22
  57.6804         32
  57.6990         24
  57.7176         22
  57.7361         27
  57.7547         38
  57.7733         30
  57.7919         32
  57.8104         39
  57.8290         37
  57.8476         22
  57.8662         29
  57.8847         30
  57.9033         24
  57.9219         21
  57.9405         26
  57.9590         26
  57.9776         30
  57.9962         21
  58.0148         31
  58.0333         21
  58.0519         30
  58.0705         32
  58.0891         27
  58.1076         23
  58.1262         25
  58.1448         23
  58.1634         23
  58.1819         20
  58.2005         30
  58.2191         21
  58.2377         32
  58.2562         23
  58.2748         23
  58.2934         20
  58.3120         31
  58.3305         20
  58.3491         35
  58.3677         34
  58.3863         34
  58.4049         30
  58.4234         23
  58.4420         36
  58.4606         28
  58.4792         33
  58.4977         21
  58.5163         31
  58.5349         25
  58.5535         15
  58.5720         29
  58.5906         30
  58.6092         17
  58.6278         26
  58.6463         29
  58.6649         25
  58.6835         22
  58.7021         25
  58.7206         29
  58.7392         30
  58.7578         29
  58.7764         31
  58.7949         30
  58.8135         27
  58.8321         31
  58.8507         37
  58.8692         26
  58.8878         26
  58.9064         25
  58.9250         37
  58.9435         24
  58.9621         20
  58.9807         28
  58.9993         30
  59.0178         24
  59.0364         25
  59.0550         25
  59.0736         24
  59.0921         28
  59.1107         35
  59.1293         32
  59.1479         35
  59.1664         21
  59.1850         25
  59.2036         19
  59.2222         29
  59.2408         21
  59.2593         22
  59.2779         25
  59.2965         34
  59.3151         28
  59.3336         28
  59.3522         31
  59.3708         21
  59.3894         21
  59.4079         29
  59.4265         21
  59.4451         32
  59.4637         14
  59.4822         24
  59.5008         22
  59.5194         25
  59.5380         30
  59.5565         25
  59.5751         25
  59.5937         35
  59.6123         19
  59.6308         24
  59.6494         22
  59.6680         20
  59.6866         33
  59.7051         37
  59.7237         24
  59.7423         26
  59.7609         36
  59.7794         22
  59.7980         28
  59.8166         27
  59.8352         18
  59.8537         23
  59.8723         33
  59.8909         21
  59.9095         30
  59.9280         29
  59.9466         24
  59.9652         29
  59.9838         27
  60.0024         27
