; (content of file Y:\Sam\Apurva-07-20-2022\puck4\ML_20220718_9_SJD_0_LaB6-2min.raw)
_FILEVERSION = 3
_SAMPLE = ML_20220718_9_SJD_0_LaB6-2min
_+SAMPLE = 
_SITE = USA
_USER = Administrator
_GONIOMETER_CODE = 20
; Goniometer : D8 theta/2theta, stage : Unknown
_ATTACHMENTS_CODE = 0
_GONIOMETER_RADIUS = 200.5
_FIXED_DIVSLIT = 0.6
_FIXED_SAMPLESLIT = 0
_SOLLER_SLITS = 2
_FIXED_DETSLIT = 9.55
_MONOCHROMATOR = 0
; Incident beam monochromator : None
_SOLLER_SLITS_2 = N
_THIN_FILM = N
_BETA_FILTER = Y
_FIXED_ANTISLIT = 5.89
_ANALYZER_CODE = 0
; Received beam analyzer : None
_DATEMEASURED = "26-Jul-2022 10:03:50"
_WL_UNIT = A
_WL1 = 1.5406
_WL2 = 1.54439
_WL3 = 1.39222
_WLRATIO = 0.5
_ANODE = Cu
_V4_INF_CREATOR = XRDWizard
_V4_INF_CREATOR_VERSION = V2.9.0.22
_V4_INF_WIZARD_VERSION = V2.9.0.22
_V4_INF_WIZARD_ADDINS = V2.9.0.22
_V4_INF_WIZARD_DOCTYPE = XRD
_V4_INF_OSUSER = McQueenLab
_V4_INF_USER = Administrator
_V4_INF_SITE = USA
_V4_INF_SAMPLEID = ML_20220718_9_SJD_0_LaB6-2min

; Data for range 1
_DRIVE = COUPLED
_STEPTIME = 5.64
_STEPSIZE = 0.0185756
_STEPMODE = C
_START = 5
_THETA = 2.5
_2THETA = 5
_KHI = 0
_PHI = 0
_X = 0
_Y = 0
_Z = 0
_DETECTOR = 5
; Detector type : Unknown
_DETECTORSLIT = unkn
_AUX1 = 0
_AUX2 = 0
_AUX3 = 0
_TIMESTARTED = 15
_TEMP_RATE = -1
_TEMP_DELAY = -1
_KV = 40
_MA = 40
_RANGE_WL = 1.5406
_3DPLANE = 0
_V4_ADDITIONALDETECTOR = 257
_V4_PSD2THETA = 3.3732
_V4_PSDCHANNEL1 = 0
_V4_PSDAPERTURE = 12.68
_V4_PSDTYPE = 5
_V4_PSDFIXED = 0
_V4_COUNTERS_MASK = 4096
_V4_DRIVES_MASK = 0
_V4_ENCODERS_MASK = 0
_2THETACOUNTS = 1
; 2THETA  PSD
   5.0000        133
   5.0186        131
   5.0372        121
   5.0557        153
   5.0743        121
   5.0929        146
   5.1115        157
   5.1300        135
   5.1486        152
   5.1672        121
   5.1858        116
   5.2043        134
   5.2229        107
   5.2415        127
   5.2601        121
   5.2786        129
   5.2972        109
   5.3158        116
   5.3344        113
   5.3529        123
   5.3715        112
   5.3901        108
   5.4087        111
   5.4272        116
   5.4458        107
   5.4644        120
   5.4830        136
   5.5015        134
   5.5201        111
   5.5387         94
   5.5573         97
   5.5758        110
   5.5944        100
   5.6130        118
   5.6316        110
   5.6501        104
   5.6687         97
   5.6873        103
   5.7059         95
   5.7244         97
   5.7430        100
   5.7616         93
   5.7802        108
   5.7988        100
   5.8173        102
   5.8359        120
   5.8545         90
   5.8731         88
   5.8916        113
   5.9102        102
   5.9288         91
   5.9474         93
   5.9659        100
   5.9845        115
   6.0031        107
   6.0217         95
   6.0402         86
   6.0588        116
   6.0774         85
   6.0960         89
   6.1145         81
   6.1331        109
   6.1517         90
   6.1703        111
   6.1888         92
   6.2074         96
   6.2260         99
   6.2446         79
   6.2631         86
   6.2817         98
   6.3003         98
   6.3189         89
   6.3374         89
   6.3560         86
   6.3746         87
   6.3932         99
   6.4117        101
   6.4303         98
   6.4489         83
   6.4675         93
   6.4860        102
   6.5046         95
   6.5232         99
   6.5418         88
   6.5604         98
   6.5789         77
   6.5975         88
   6.6161         98
   6.6347         93
   6.6532         87
   6.6718         99
   6.6904         78
   6.7090         87
   6.7275         74
   6.7461         81
   6.7647         82
   6.7833         87
   6.8018         88
   6.8204         95
   6.8390         96
   6.8576         82
   6.8761         84
   6.8947         81
   6.9133         76
   6.9319         84
   6.9504         86
   6.9690         82
   6.9876         88
   7.0062         85
   7.0247         85
   7.0433         74
   7.0619         77
   7.0805         88
   7.0990         72
   7.1176         74
   7.1362         69
   7.1548         79
   7.1733         67
   7.1919         86
   7.2105         83
   7.2291         74
   7.2476         85
   7.2662         75
   7.2848         89
   7.3034         84
   7.3220         69
   7.3405         68
   7.3591         83
   7.3777         71
   7.3963         82
   7.4148         74
   7.4334         79
   7.4520         68
   7.4706         98
   7.4891         89
   7.5077         90
   7.5263         88
   7.5449         97
   7.5634         84
   7.5820         70
   7.6006         95
   7.6192         97
   7.6377         90
   7.6563         98
   7.6749         84
   7.6935         83
   7.7120         87
   7.7306        102
   7.7492         72
   7.7678         94
   7.7863         77
   7.8049        104
   7.8235         89
   7.8421         92
   7.8606         93
   7.8792         91
   7.8978        100
   7.9164         76
   7.9349         81
   7.9535         95
   7.9721         81
   7.9907         85
   8.0092         88
   8.0278        104
   8.0464         84
   8.0650         84
   8.0835         97
   8.1021         91
   8.1207         78
   8.1393         79
   8.1579        119
   8.1764        103
   8.1950        108
   8.2136        106
   8.2322         85
   8.2507        106
   8.2693         98
   8.2879        114
   8.3065        118
   8.3250         95
   8.3436         92
   8.3622         95
   8.3808        104
   8.3993         97
   8.4179         97
   8.4365         91
   8.4551         90
   8.4736         89
   8.4922        104
   8.5108        104
   8.5294        118
   8.5479         91
   8.5665        100
   8.5851         98
   8.6037        108
   8.6222        106
   8.6408         88
   8.6594        107
   8.6780        107
   8.6965         87
   8.7151         90
   8.7337        100
   8.7523        104
   8.7708        105
   8.7894         89
   8.8080         87
   8.8266         96
   8.8451        117
   8.8637        100
   8.8823        115
   8.9009         96
   8.9195         98
   8.9380        108
   8.9566        121
   8.9752         94
   8.9938         98
   9.0123        106
   9.0309        111
   9.0495        115
   9.0681        107
   9.0866         98
   9.1052        105
   9.1238        117
   9.1424        109
   9.1609        104
   9.1795        107
   9.1981        116
   9.2167        110
   9.2352        109
   9.2538         99
   9.2724        108
   9.2910        106
   9.3095        121
   9.3281        133
   9.3467        121
   9.3653        126
   9.3838        120
   9.4024        123
   9.4210        104
   9.4396        122
   9.4581        117
   9.4767        120
   9.4953        106
   9.5139         99
   9.5324        135
   9.5510        113
   9.5696        104
   9.5882         91
   9.6067        118
   9.6253        148
   9.6439        130
   9.6625         98
   9.6811        117
   9.6996        109
   9.7182        115
   9.7368         89
   9.7554         98
   9.7739        109
   9.7925        122
   9.8111        120
   9.8297        123
   9.8482        115
   9.8668        119
   9.8854        115
   9.9040        125
   9.9225        151
   9.9411        106
   9.9597        109
   9.9783        129
   9.9968        125
  10.0154        119
  10.0340        121
  10.0526        110
  10.0711        101
  10.0897        111
  10.1083        126
  10.1269        118
  10.1454        116
  10.1640        128
  10.1826        130
  10.2012        112
  10.2197        132
  10.2383        127
  10.2569        134
  10.2755        117
  10.2940        131
  10.3126        126
  10.3312        126
  10.3498        115
  10.3683        110
  10.3869        110
  10.4055        104
  10.4241        112
  10.4427        114
  10.4612        105
  10.4798        112
  10.4984        135
  10.5170        119
  10.5355        123
  10.5541        124
  10.5727        115
  10.5913        102
  10.6098        126
  10.6284        124
  10.6470        130
  10.6656        132
  10.6841        124
  10.7027        108
  10.7213        113
  10.7399        125
  10.7584        101
  10.7770        122
  10.7956        121
  10.8142        119
  10.8327        120
  10.8513        101
  10.8699        119
  10.8885        121
  10.9070        112
  10.9256        129
  10.9442        123
  10.9628        109
  10.9813        105
  10.9999        115
  11.0185        132
  11.0371        111
  11.0556        114
  11.0742        145
  11.0928        109
  11.1114        130
  11.1299        107
  11.1485        116
  11.1671        127
  11.1857        121
  11.2043        107
  11.2228        109
  11.2414        116
  11.2600        108
  11.2786        131
  11.2971        128
  11.3157        125
  11.3343        109
  11.3529        122
  11.3714        113
  11.3900        121
  11.4086        135
  11.4272        134
  11.4457        127
  11.4643        119
  11.4829        130
  11.5015        114
  11.5200        116
  11.5386        128
  11.5572        124
  11.5758        142
  11.5943        121
  11.6129        132
  11.6315        112
  11.6501        140
  11.6686        140
  11.6872        118
  11.7058        134
  11.7244        120
  11.7429        111
  11.7615        120
  11.7801        110
  11.7987        116
  11.8172        103
  11.8358         96
  11.8544        111
  11.8730        107
  11.8915        112
  11.9101        114
  11.9287        105
  11.9473        103
  11.9659        110
  11.9844        108
  12.0030        122
  12.0216        116
  12.0402        112
  12.0587        107
  12.0773        126
  12.0959        109
  12.1145        102
  12.1330        105
  12.1516         98
  12.1702         94
  12.1888        101
  12.2073        118
  12.2259        106
  12.2445        109
  12.2631        100
  12.2816        101
  12.3002        106
  12.3188        115
  12.3374        105
  12.3559        126
  12.3745        124
  12.3931        103
  12.4117        122
  12.4302        115
  12.4488        111
  12.4674        106
  12.4860        110
  12.5045        122
  12.5231        119
  12.5417        116
  12.5603        105
  12.5788         98
  12.5974         99
  12.6160        121
  12.6346         90
  12.6531         97
  12.6717         93
  12.6903         96
  12.7089         92
  12.7274        107
  12.7460         97
  12.7646        108
  12.7832         88
  12.8018        117
  12.8203         96
  12.8389        118
  12.8575         98
  12.8761        109
  12.8946        113
  12.9132        102
  12.9318        118
  12.9504         88
  12.9689         78
  12.9875         98
  13.0061        115
  13.0247        100
  13.0432        101
  13.0618        114
  13.0804        102
  13.0990        100
  13.1175         90
  13.1361         99
  13.1547        108
  13.1733         79
  13.1918         94
  13.2104         97
  13.2290        106
  13.2476         92
  13.2661        113
  13.2847        100
  13.3033         88
  13.3219        114
  13.3404        102
  13.3590        110
  13.3776        110
  13.3962         95
  13.4147         87
  13.4333         96
  13.4519         98
  13.4705         96
  13.4890         95
  13.5076        107
  13.5262         98
  13.5448         95
  13.5634        101
  13.5819        104
  13.6005         98
  13.6191         93
  13.6377         91
  13.6562         89
  13.6748         82
  13.6934         91
  13.7120         89
  13.7305         93
  13.7491         92
  13.7677         98
  13.7863         94
  13.8048         92
  13.8234         96
  13.8420         94
  13.8606        110
  13.8791         95
  13.8977         79
  13.9163         95
  13.9349         96
  13.9534        100
  13.9720         96
  13.9906        100
  14.0092         89
  14.0277         85
  14.0463        110
  14.0649         80
  14.0835         98
  14.1020        110
  14.1206        106
  14.1392         85
  14.1578         93
  14.1763         94
  14.1949         83
  14.2135         98
  14.2321         82
  14.2506         64
  14.2692         85
  14.2878         84
  14.3064         90
  14.3250         77
  14.3435         73
  14.3621         91
  14.3807         91
  14.3993         71
  14.4178        106
  14.4364         95
  14.4550         85
  14.4736         82
  14.4921         84
  14.5107         93
  14.5293         87
  14.5479         89
  14.5664        102
  14.5850         79
  14.6036         98
  14.6222         87
  14.6407         80
  14.6593         95
  14.6779         98
  14.6965         84
  14.7150         70
  14.7336         95
  14.7522         70
  14.7708         74
  14.7893         73
  14.8079         85
  14.8265         82
  14.8451         86
  14.8636         81
  14.8822         85
  14.9008         78
  14.9194         85
  14.9379         90
  14.9565         89
  14.9751         78
  14.9937         87
  15.0122         97
  15.0308         95
  15.0494         80
  15.0680         91
  15.0866         77
  15.1051         83
  15.1237         86
  15.1423         81
  15.1609         87
  15.1794         73
  15.1980         88
  15.2166         73
  15.2352         73
  15.2537         78
  15.2723         74
  15.2909         70
  15.3095         76
  15.3280         80
  15.3466         87
  15.3652         76
  15.3838         74
  15.4023         85
  15.4209         79
  15.4395        109
  15.4581         82
  15.4766         81
  15.4952         76
  15.5138         81
  15.5324         96
  15.5509         85
  15.5695         85
  15.5881         68
  15.6067         72
  15.6252         90
  15.6438         95
  15.6624         74
  15.6810         72
  15.6995         93
  15.7181         91
  15.7367         87
  15.7553         90
  15.7738         77
  15.7924         80
  15.8110         75
  15.8296         86
  15.8482        120
  15.8667         85
  15.8853         85
  15.9039         95
  15.9225         90
  15.9410         78
  15.9596         65
  15.9782         85
  15.9968         81
  16.0153         83
  16.0339         78
  16.0525         76
  16.0711         81
  16.0896         77
  16.1082        101
  16.1268         83
  16.1454         78
  16.1639         84
  16.1825         66
  16.2011         71
  16.2197         81
  16.2382         93
  16.2568         89
  16.2754         63
  16.2940         86
  16.3125         93
  16.3311         90
  16.3497         83
  16.3683         84
  16.3868         80
  16.4054         94
  16.4240         76
  16.4426         80
  16.4611         72
  16.4797         67
  16.4983         81
  16.5169         77
  16.5354         72
  16.5540         66
  16.5726         79
  16.5912         86
  16.6097         90
  16.6283         79
  16.6469         96
  16.6655         89
  16.6841         84
  16.7026         89
  16.7212         70
  16.7398         79
  16.7584         98
  16.7769         77
  16.7955         63
  16.8141         89
  16.8327         93
  16.8512         79
  16.8698         67
  16.8884         74
  16.9070         82
  16.9255         77
  16.9441         70
  16.9627         81
  16.9813         80
  16.9998         92
  17.0184         75
  17.0370         83
  17.0556         76
  17.0741         77
  17.0927         87
  17.1113         81
  17.1299         90
  17.1484         95
  17.1670         69
  17.1856         87
  17.2042         82
  17.2227         82
  17.2413         89
  17.2599         84
  17.2785         78
  17.2970         78
  17.3156         72
  17.3342         73
  17.3528         82
  17.3713         64
  17.3899         78
  17.4085         66
  17.4271         80
  17.4457         87
  17.4642         69
  17.4828         87
  17.5014         65
  17.5200         72
  17.5385         69
  17.5571         81
  17.5757         85
  17.5943         92
  17.6128         82
  17.6314         85
  17.6500         73
  17.6686         92
  17.6871         92
  17.7057         83
  17.7243         72
  17.7429         77
  17.7614         79
  17.7800         80
  17.7986         90
  17.8172         71
  17.8357         97
  17.8543         84
  17.8729         85
  17.8915         93
  17.9100         77
  17.9286         98
  17.9472         79
  17.9658         79
  17.9843         79
  18.0029         91
  18.0215         90
  18.0401         76
  18.0586        100
  18.0772         80
  18.0958         85
  18.1144         73
  18.1329         86
  18.1515         80
  18.1701         75
  18.1887         84
  18.2073         89
  18.2258         90
  18.2444         87
  18.2630         77
  18.2816         97
  18.3001         76
  18.3187         95
  18.3373         80
  18.3559         83
  18.3744         83
  18.3930         72
  18.4116         89
  18.4302         85
  18.4487        109
  18.4673         83
  18.4859         71
  18.5045         68
  18.5230         69
  18.5416         79
  18.5602         68
  18.5788         79
  18.5973         84
  18.6159        100
  18.6345         86
  18.6531         94
  18.6716         77
  18.6902         95
  18.7088         81
  18.7274         82
  18.7459         83
  18.7645         84
  18.7831         88
  18.8017         83
  18.8202         85
  18.8388         88
  18.8574         87
  18.8760         66
  18.8945         76
  18.9131         67
  18.9317         73
  18.9503         93
  18.9689         59
  18.9874         86
  19.0060         72
  19.0246         68
  19.0432         97
  19.0617         95
  19.0803         95
  19.0989         97
  19.1175         77
  19.1360         84
  19.1546         76
  19.1732         73
  19.1918         73
  19.2103         74
  19.2289         84
  19.2475         84
  19.2661         59
  19.2846         95
  19.3032         95
  19.3218         96
  19.3404         92
  19.3589        101
  19.3775         78
  19.3961         90
  19.4147         94
  19.4332         84
  19.4518        101
  19.4704         79
  19.4890         83
  19.5075         83
  19.5261         83
  19.5447        103
  19.5633         79
  19.5818         97
  19.6004         86
  19.6190        101
  19.6376         96
  19.6561         82
  19.6747         87
  19.6933         95
  19.7119         86
  19.7305         88
  19.7490         71
  19.7676         92
  19.7862        102
  19.8048         90
  19.8233         76
  19.8419         81
  19.8605         88
  19.8791         85
  19.8976         93
  19.9162         99
  19.9348         53
  19.9534         89
  19.9719         83
  19.9905         90
  20.0091         88
  20.0277         83
  20.0462         77
  20.0648        103
  20.0834         98
  20.1020         83
  20.1205         79
  20.1391        110
  20.1577         97
  20.1763         95
  20.1948         94
  20.2134        103
  20.2320         98
  20.2506         77
  20.2691         97
  20.2877         77
  20.3063         83
  20.3249         80
  20.3434         94
  20.3620         87
  20.3806        120
  20.3992         95
  20.4177         91
  20.4363         81
  20.4549         95
  20.4735         93
  20.4921         82
  20.5106        103
  20.5292         93
  20.5478         83
  20.5664         88
  20.5849         88
  20.6035        109
  20.6221        109
  20.6407        110
  20.6592        102
  20.6778         96
  20.6964         89
  20.7150         92
  20.7335         93
  20.7521         82
  20.7707         92
  20.7893         91
  20.8078         92
  20.8264         77
  20.8450        109
  20.8636        104
  20.8821        103
  20.9007         87
  20.9193        107
  20.9379         88
  20.9564         93
  20.9750         86
  20.9936        103
  21.0122         73
  21.0307         94
  21.0493         99
  21.0679        105
  21.0865         93
  21.1050        111
  21.1236        112
  21.1422        118
  21.1608        114
  21.1793        132
  21.1979        137
  21.2165        165
  21.2351        171
  21.2537        154
  21.2722        173
  21.2908        157
  21.3094        165
  21.3280        252
  21.3465        249
  21.3651        275
  21.3837        219
  21.4023        174
  21.4208        166
  21.4394        128
  21.4580        114
  21.4766        110
  21.4951        105
  21.5137         92
  21.5323         96
  21.5509        104
  21.5694         94
  21.5880         95
  21.6066        116
  21.6252         90
  21.6437         91
  21.6623         83
  21.6809         87
  21.6995         89
  21.7180         84
  21.7366         79
  21.7552        107
  21.7738        105
  21.7923         99
  21.8109        104
  21.8295        108
  21.8481         71
  21.8666        107
  21.8852         98
  21.9038         81
  21.9224         97
  21.9409         86
  21.9595         92
  21.9781         92
  21.9967         73
  22.0152        108
  22.0338         97
  22.0524        101
  22.0710         99
  22.0896         85
  22.1081         81
  22.1267         93
  22.1453        106
  22.1639        103
  22.1824         90
  22.2010         81
  22.2196        101
  22.2382        114
  22.2567         95
  22.2753        117
  22.2939         81
  22.3125        102
  22.3310         93
  22.3496         72
  22.3682        100
  22.3868         91
  22.4053         99
  22.4239        100
  22.4425        109
  22.4611         99
  22.4796        101
  22.4982        113
  22.5168         95
  22.5354        102
  22.5539        105
  22.5725        114
  22.5911        108
  22.6097        102
  22.6282        110
  22.6468        105
  22.6654         92
  22.6840         99
  22.7025        102
  22.7211        102
  22.7397        101
  22.7583         98
  22.7768         87
  22.7954         90
  22.8140        108
  22.8326         97
  22.8512        128
  22.8697         96
  22.8883         98
  22.9069        105
  22.9255         97
  22.9440        109
  22.9626        107
  22.9812         87
  22.9998        103
  23.0183         83
  23.0369         87
  23.0555         91
  23.0741        101
  23.0926         74
  23.1112         97
  23.1298         94
  23.1484         98
  23.1669        102
  23.1855        104
  23.2041         99
  23.2227        105
  23.2412         90
  23.2598        112
  23.2784         97
  23.2970         98
  23.3155         99
  23.3341        102
  23.3527        107
  23.3713        109
  23.3898        101
  23.4084         99
  23.4270        109
  23.4456         99
  23.4641        112
  23.4827         99
  23.5013         98
  23.5199         91
  23.5384        109
  23.5570         89
  23.5756        106
  23.5942         93
  23.6128        123
  23.6313         97
  23.6499         96
  23.6685        112
  23.6871        109
  23.7056        103
  23.7242         92
  23.7428        103
  23.7614        109
  23.7799         85
  23.7985        129
  23.8171         84
  23.8357         85
  23.8542        102
  23.8728         88
  23.8914         99
  23.9100        111
  23.9285         98
  23.9471         95
  23.9657         96
  23.9843         88
  24.0028         83
  24.0214         86
  24.0400        101
  24.0586        108
  24.0771        106
  24.0957         96
  24.1143        107
  24.1329        122
  24.1514        104
  24.1700         94
  24.1886         97
  24.2072        107
  24.2257        102
  24.2443        106
  24.2629        130
  24.2815        103
  24.3000         93
  24.3186        117
  24.3372        106
  24.3558         89
  24.3744        110
  24.3929        111
  24.4115        104
  24.4301         99
  24.4487        104
  24.4672        105
  24.4858        108
  24.5044         89
  24.5230         85
  24.5415         98
  24.5601        114
  24.5787        106
  24.5973        109
  24.6158        104
  24.6344         95
  24.6530         99
  24.6716        111
  24.6901        100
  24.7087         99
  24.7273         98
  24.7459         94
  24.7644         92
  24.7830         97
  24.8016         82
  24.8202         99
  24.8387         98
  24.8573         96
  24.8759        104
  24.8945         96
  24.9130         96
  24.9316         93
  24.9502        102
  24.9688         90
  24.9873        106
  25.0059         92
  25.0245        119
  25.0431         86
  25.0616        112
  25.0802        102
  25.0988         85
  25.1174        102
  25.1360         85
  25.1545         89
  25.1731        101
  25.1917        112
  25.2103         95
  25.2288        116
  25.2474        113
  25.2660         89
  25.2846        108
  25.3031         99
  25.3217         92
  25.3403         92
  25.3589         84
  25.3774        104
  25.3960         91
  25.4146         98
  25.4332         96
  25.4517        102
  25.4703         91
  25.4889         90
  25.5075         71
  25.5260        103
  25.5446        108
  25.5632         88
  25.5818        108
  25.6003         93
  25.6189         97
  25.6375        106
  25.6561         85
  25.6746         98
  25.6932         91
  25.7118         91
  25.7304        103
  25.7489         92
  25.7675         96
  25.7861         78
  25.8047        109
  25.8232        103
  25.8418         84
  25.8604        115
  25.8790         96
  25.8976        107
  25.9161         80
  25.9347         94
  25.9533         87
  25.9719         96
  25.9904         91
  26.0090         91
  26.0276         90
  26.0462         95
  26.0647         99
  26.0833         77
  26.1019         85
  26.1205         83
  26.1390         89
  26.1576         94
  26.1762         91
  26.1948        111
  26.2133         88
  26.2319         95
  26.2505        106
  26.2691         96
  26.2876         83
  26.3062         93
  26.3248         97
  26.3434         88
  26.3619         84
  26.3805         89
  26.3991         98
  26.4177        101
  26.4362         93
  26.4548         88
  26.4734         92
  26.4920         87
  26.5105         73
  26.5291         82
  26.5477         99
  26.5663        108
  26.5848         89
  26.6034         86
  26.6220         87
  26.6406         94
  26.6591         89
  26.6777         98
  26.6963         79
  26.7149         94
  26.7335         83
  26.7520        100
  26.7706         78
  26.7892         90
  26.8078         94
  26.8263         83
  26.8449         96
  26.8635         88
  26.8821         93
  26.9006         87
  26.9192        104
  26.9378         92
  26.9564         89
  26.9749         90
  26.9935        104
  27.0121        101
  27.0307        101
  27.0492         87
  27.0678        106
  27.0864        105
  27.1050         95
  27.1235        101
  27.1421         86
  27.1607        108
  27.1793        102
  27.1978        115
  27.2164        119
  27.2350        115
  27.2536        108
  27.2721        127
  27.2907        104
  27.3093         86
  27.3279         95
  27.3464         91
  27.3650         83
  27.3836         84
  27.4022         88
  27.4207        102
  27.4393         94
  27.4579         99
  27.4765         86
  27.4951        100
  27.5136         87
  27.5322         85
  27.5508         90
  27.5694        104
  27.5879        101
  27.6065         96
  27.6251        116
  27.6437         82
  27.6622         96
  27.6808         78
  27.6994         86
  27.7180         87
  27.7365        103
  27.7551         82
  27.7737         88
  27.7923         84
  27.8108         88
  27.8294         89
  27.8480         83
  27.8666         87
  27.8851         99
  27.9037         86
  27.9223         67
  27.9409         81
  27.9594         81
  27.9780         91
  27.9966         96
  28.0152         87
  28.0337         85
  28.0523         69
  28.0709         87
  28.0895         77
  28.1080         77
  28.1266         87
  28.1452         80
  28.1638         86
  28.1823         93
  28.2009         91
  28.2195         84
  28.2381         83
  28.2567         89
  28.2752         74
  28.2938         94
  28.3124         91
  28.3310         91
  28.3495         88
  28.3681        110
  28.3867         81
  28.4053         70
  28.4238         74
  28.4424         76
  28.4610         80
  28.4796        102
  28.4981         73
  28.5167         67
  28.5353         81
  28.5539         85
  28.5724         76
  28.5910         82
  28.6096         69
  28.6282         82
  28.6467         66
  28.6653         69
  28.6839         92
  28.7025         81
  28.7210         81
  28.7396        108
  28.7582         74
  28.7768         97
  28.7953         78
  28.8139         84
  28.8325         94
  28.8511         72
  28.8696         87
  28.8882         92
  28.9068         80
  28.9254         77
  28.9439         84
  28.9625         72
  28.9811         85
  28.9997         75
  29.0183         64
  29.0368         64
  29.0554         82
  29.0740         93
  29.0926         95
  29.1111         62
  29.1297         81
  29.1483         67
  29.1669         80
  29.1854         79
  29.2040         79
  29.2226         70
  29.2412         77
  29.2597         62
  29.2783         91
  29.2969         85
  29.3155         77
  29.3340         90
  29.3526         88
  29.3712         83
  29.3898         91
  29.4083         92
  29.4269         67
  29.4455         98
  29.4641         77
  29.4826         93
  29.5012         91
  29.5198         93
  29.5384         82
  29.5569         83
  29.5755         73
  29.5941         78
  29.6127         84
  29.6312         66
  29.6498         94
  29.6684         79
  29.6870         70
  29.7055         85
  29.7241         73
  29.7427         89
  29.7613         67
  29.7799         89
  29.7984         72
  29.8170         60
  29.8356         80
  29.8542         75
  29.8727         99
  29.8913         79
  29.9099         80
  29.9285         71
  29.9470         59
  29.9656         72
  29.9842         74
  30.0028         66
  30.0213         74
  30.0399         75
  30.0585         63
  30.0771         66
  30.0956         87
  30.1142         79
  30.1328         73
  30.1514         89
  30.1699         64
  30.1885         82
  30.2071         84
  30.2257         76
  30.2442         84
  30.2628         72
  30.2814         89
  30.3000         83
  30.3185         96
  30.3371        104
  30.3557        140
  30.3743        147
  30.3928        166
  30.4114        136
  30.4300        134
  30.4486        107
  30.4671        130
  30.4857        116
  30.5043         81
  30.5229         68
  30.5415         76
  30.5600         67
  30.5786         67
  30.5972         79
  30.6158         80
  30.6343         82
  30.6529         57
  30.6715         76
  30.6901         79
  30.7086         89
  30.7272         69
  30.7458         67
  30.7644         84
  30.7829         74
  30.8015         68
  30.8201         56
  30.8387         68
  30.8572         74
  30.8758         68
  30.8944         76
  30.9130         83
  30.9315         70
  30.9501         63
  30.9687         73
  30.9873         86
  31.0058         75
  31.0244         80
  31.0430         71
  31.0616         71
  31.0801         76
  31.0987         76
  31.1173         77
  31.1359         85
  31.1544         75
  31.1730         68
  31.1916         71
  31.2102         77
  31.2287         55
  31.2473         66
  31.2659         71
  31.2845         63
  31.3030         63
  31.3216         65
  31.3402         73
  31.3588         78
  31.3774         74
  31.3959         62
  31.4145         68
  31.4331         74
  31.4517         79
  31.4702         72
  31.4888         74
  31.5074         65
  31.5260         77
  31.5445         72
  31.5631         66
  31.5817         64
  31.6003         64
  31.6188         44
  31.6374         66
  31.6560         72
  31.6746         70
  31.6931         86
  31.7117         55
  31.7303         61
  31.7489         69
  31.7674         76
  31.7860         55
  31.8046         70
  31.8232         71
  31.8417         58
  31.8603         74
  31.8789         66
  31.8975         81
  31.9160         69
  31.9346         68
  31.9532         67
  31.9718         56
  31.9903         49
  32.0089         76
  32.0275         67
  32.0461         67
  32.0646         75
  32.0832         56
  32.1018         81
  32.1204         60
  32.1390         78
  32.1575         63
  32.1761         65
  32.1947         91
  32.2133         65
  32.2318         65
  32.2504         72
  32.2690         69
  32.2876         65
  32.3061         65
  32.3247         80
  32.3433         65
  32.3619         60
  32.3804         60
  32.3990         72
  32.4176         72
  32.4362         65
  32.4547         78
  32.4733         57
  32.4919         76
  32.5105         81
  32.5290         60
  32.5476         92
  32.5662         59
  32.5848         62
  32.6033         74
  32.6219         71
  32.6405         61
  32.6591         64
  32.6776         74
  32.6962         60
  32.7148         61
  32.7334         59
  32.7519         62
  32.7705         51
  32.7891         59
  32.8077         71
  32.8262         67
  32.8448         59
  32.8634         63
  32.8820         65
  32.9006         67
  32.9191         47
  32.9377         63
  32.9563         60
  32.9749         54
  32.9934         57
  33.0120         65
  33.0306         57
  33.0492         70
  33.0677         62
  33.0863         61
  33.1049         68
  33.1235         68
  33.1420         57
  33.1606         55
  33.1792         60
  33.1978         54
  33.2163         70
  33.2349         54
  33.2535         58
  33.2721         52
  33.2906         70
  33.3092         52
  33.3278         58
  33.3464         59
  33.3649         55
  33.3835         69
  33.4021         54
  33.4207         51
  33.4392         57
  33.4578         56
  33.4764         57
  33.4950         64
  33.5135         70
  33.5321         40
  33.5507         54
  33.5693         68
  33.5878         45
  33.6064         59
  33.6250         63
  33.6436         51
  33.6622         57
  33.6807         68
  33.6993         65
  33.7179         67
  33.7365         57
  33.7550         54
  33.7736         53
  33.7922         64
  33.8108         64
  33.8293         69
  33.8479         56
  33.8665         58
  33.8851         57
  33.9036         59
  33.9222         60
  33.9408         51
  33.9594         69
  33.9779         54
  33.9965         50
  34.0151         71
  34.0337         59
  34.0522         51
  34.0708         44
  34.0894         62
  34.1080         54
  34.1265         73
  34.1451         52
  34.1637         55
  34.1823         46
  34.2008         57
  34.2194         43
  34.2380         52
  34.2566         57
  34.2751         49
  34.2937         68
  34.3123         62
  34.3309         57
  34.3494         57
  34.3680         53
  34.3866         54
  34.4052         54
  34.4238         52
  34.4423         50
  34.4609         54
  34.4795         60
  34.4981         55
  34.5166         46
  34.5352         48
  34.5538         62
  34.5724         66
  34.5909         58
  34.6095         71
  34.6281         58
  34.6467         58
  34.6652         61
  34.6838         50
  34.7024         61
  34.7210         75
  34.7395         72
  34.7581         71
  34.7767         69
  34.7953         76
  34.8138         71
  34.8324         73
  34.8510         59
  34.8696         64
  34.8881         65
  34.9067         58
  34.9253         51
  34.9439         79
  34.9624         50
  34.9810         42
  34.9996         55
  35.0182         56
  35.0367         60
  35.0553         58
  35.0739         40
  35.0925         57
  35.1110         43
  35.1296         54
  35.1482         55
  35.1668         50
  35.1854         60
  35.2039         38
  35.2225         65
  35.2411         43
  35.2597         55
  35.2782         61
  35.2968         38
  35.3154         51
  35.3340         59
  35.3525         59
  35.3711         50
  35.3897         55
  35.4083         53
  35.4268         54
  35.4454         50
  35.4640         54
  35.4826         45
  35.5011         57
  35.5197         54
  35.5383         44
  35.5569         59
  35.5754         57
  35.5940         47
  35.6126         49
  35.6312         61
  35.6497         54
  35.6683         53
  35.6869         58
  35.7055         56
  35.7240         61
  35.7426         50
  35.7612         44
  35.7798         42
  35.7983         45
  35.8169         43
  35.8355         59
  35.8541         53
  35.8726         43
  35.8912         45
  35.9098         58
  35.9284         50
  35.9469         53
  35.9655         58
  35.9841         56
  36.0027         41
  36.0213         46
  36.0398         54
  36.0584         51
  36.0770         47
  36.0956         53
  36.1141         44
  36.1327         53
  36.1513         43
  36.1699         55
  36.1884         43
  36.2070         63
  36.2256         56
  36.2442         42
  36.2627         57
  36.2813         37
  36.2999         43
  36.3185         40
  36.3370         60
  36.3556         51
  36.3742         51
  36.3928         51
  36.4113         51
  36.4299         45
  36.4485         49
  36.4671         42
  36.4856         42
  36.5042         46
  36.5228         37
  36.5414         31
  36.5599         49
  36.5785         50
  36.5971         45
  36.6157         51
  36.6342         43
  36.6528         52
  36.6714         49
  36.6900         51
  36.7085         44
  36.7271         40
  36.7457         40
  36.7643         54
  36.7829         47
  36.8014         46
  36.8200         42
  36.8386         47
  36.8572         57
  36.8757         55
  36.8943         44
  36.9129         41
  36.9315         44
  36.9500         39
  36.9686         47
  36.9872         49
  37.0058         54
  37.0243         41
  37.0429         42
  37.0615         47
  37.0801         39
  37.0986         60
  37.1172         49
  37.1358         43
  37.1544         61
  37.1729         38
  37.1915         41
  37.2101         51
  37.2287         42
  37.2472         45
  37.2658         40
  37.2844         53
  37.3030         67
  37.3215         61
  37.3401         47
  37.3587         47
  37.3773         52
  37.3958         63
  37.4144         55
  37.4330         82
  37.4516         69
  37.4701         71
  37.4887         60
  37.5073         58
  37.5259         48
  37.5445         57
  37.5630         61
  37.5816         44
  37.6002         44
  37.6188         49
  37.6373         45
  37.6559         54
  37.6745         39
  37.6931         39
  37.7116         44
  37.7302         34
  37.7488         45
  37.7674         49
  37.7859         43
  37.8045         50
  37.8231         42
  37.8417         38
  37.8602         63
  37.8788         50
  37.8974         36
  37.9160         34
  37.9345         35
  37.9531         51
  37.9717         47
  37.9903         42
  38.0088         42
  38.0274         47
  38.0460         33
  38.0646         48
  38.0831         36
  38.1017         41
  38.1203         55
  38.1389         54
  38.1574         41
  38.1760         53
  38.1946         38
  38.2132         42
  38.2317         42
  38.2503         31
  38.2689         37
  38.2875         51
  38.3061         51
  38.3246         47
  38.3432         40
  38.3618         35
  38.3804         43
  38.3989         45
  38.4175         42
  38.4361         35
  38.4547         39
  38.4732         37
  38.4918         43
  38.5104         43
  38.5290         40
  38.5475         33
  38.5661         47
  38.5847         46
  38.6033         26
  38.6218         32
  38.6404         49
  38.6590         49
  38.6776         30
  38.6961         36
  38.7147         47
  38.7333         40
  38.7519         38
  38.7704         59
  38.7890         41
  38.8076         43
  38.8262         37
  38.8447         44
  38.8633         33
  38.8819         44
  38.9005         42
  38.9190         37
  38.9376         52
  38.9562         35
  38.9748         45
  38.9933         41
  39.0119         50
  39.0305         26
  39.0491         40
  39.0677         40
  39.0862         57
  39.1048         54
  39.1234         46
  39.1420         49
  39.1605         53
  39.1791         27
  39.1977         47
  39.2163         56
  39.2348         48
  39.2534         40
  39.2720         30
  39.2906         37
  39.3091         35
  39.3277         39
  39.3463         34
  39.3649         43
  39.3834         36
  39.4020         33
  39.4206         47
  39.4392         34
  39.4577         36
  39.4763         48
  39.4949         36
  39.5135         39
  39.5320         39
  39.5506         32
  39.5692         34
  39.5878         30
  39.6063         46
  39.6249         37
  39.6435         45
  39.6621         42
  39.6806         36
  39.6992         48
  39.7178         43
  39.7364         30
  39.7549         51
  39.7735         42
  39.7921         43
  39.8107         38
  39.8293         33
  39.8478         32
  39.8664         25
  39.8850         31
  39.9036         33
  39.9221         39
  39.9407         34
  39.9593         49
  39.9779         48
  39.9964         43
  40.0150         35
  40.0336         48
  40.0522         38
  40.0707         26
  40.0893         34
  40.1079         43
  40.1265         36
  40.1450         36
  40.1636         34
  40.1822         29
  40.2008         37
  40.2193         43
  40.2379         42
  40.2565         38
  40.2751         44
  40.2936         38
  40.3122         31
  40.3308         36
  40.3494         49
  40.3679         30
  40.3865         25
  40.4051         29
  40.4237         41
  40.4422         44
  40.4608         40
  40.4794         31
  40.4980         44
  40.5165         36
  40.5351         45
  40.5537         38
  40.5723         41
  40.5908         47
  40.6094         45
  40.6280         47
  40.6466         37
  40.6652         38
  40.6837         33
  40.7023         29
  40.7209         38
  40.7395         44
  40.7580         36
  40.7766         32
  40.7952         45
  40.8138         37
  40.8323         40
  40.8509         41
  40.8695         37
  40.8881         49
  40.9066         38
  40.9252         39
  40.9438         41
  40.9624         47
  40.9809         36
  40.9995         45
  41.0181         35
  41.0367         46
  41.0552         43
  41.0738         48
  41.0924         41
  41.1110         46
  41.1295         48
  41.1481         32
  41.1667         33
  41.1853         38
  41.2038         43
  41.2224         29
  41.2410         42
  41.2596         42
  41.2781         42
  41.2967         34
  41.3153         39
  41.3339         45
  41.3524         29
  41.3710         37
  41.3896         37
  41.4082         41
  41.4268         32
  41.4453         29
  41.4639         38
  41.4825         38
  41.5011         47
  41.5196         34
  41.5382         49
  41.5568         35
  41.5754         41
  41.5939         54
  41.6125         21
  41.6311         32
  41.6497         44
  41.6682         42
  41.6868         33
  41.7054         32
  41.7240         29
  41.7425         38
  41.7611         31
  41.7797         37
  41.7983         36
  41.8168         29
  41.8354         39
  41.8540         45
  41.8726         35
  41.8911         44
  41.9097         40
  41.9283         40
  41.9469         42
  41.9654         30
  41.9840         29
  42.0026         30
  42.0212         32
  42.0397         38
  42.0583         31
  42.0769         46
  42.0955         30
  42.1140         32
  42.1326         40
  42.1512         28
  42.1698         37
  42.1884         43
  42.2069         41
  42.2255         31
  42.2441         43
  42.2627         36
  42.2812         29
  42.2998         36
  42.3184         38
  42.3370         37
  42.3555         44
  42.3741         31
  42.3927         38
  42.4113         46
  42.4298         35
  42.4484         28
  42.4670         38
  42.4856         23
  42.5041         33
  42.5227         35
  42.5413         37
  42.5599         44
  42.5784         44
  42.5970         30
  42.6156         28
  42.6342         42
  42.6527         24
  42.6713         37
  42.6899         40
  42.7085         32
  42.7270         28
  42.7456         42
  42.7642         40
  42.7828         35
  42.8013         37
  42.8199         41
  42.8385         37
  42.8571         37
  42.8756         33
  42.8942         37
  42.9128         45
  42.9314         44
  42.9500         40
  42.9685         36
  42.9871         33
  43.0057         42
  43.0243         30
  43.0428         30
  43.0614         40
  43.0800         35
  43.0986         40
  43.1171         41
  43.1357         39
  43.1543         40
  43.1729         47
  43.1914         53
  43.2100         44
  43.2286         48
  43.2472         31
  43.2657         41
  43.2843         44
  43.3029         51
  43.3215         30
  43.3400         36
  43.3586         47
  43.3772         50
  43.3958         38
  43.4143         43
  43.4329         46
  43.4515         59
  43.4701         58
  43.4886         54
  43.5072         79
  43.5258         56
  43.5444         48
  43.5629         35
  43.5815         42
  43.6001         48
  43.6187         64
  43.6372         53
  43.6558         38
  43.6744         48
  43.6930         36
  43.7116         43
  43.7301         36
  43.7487         30
  43.7673         44
  43.7859         30
  43.8044         46
  43.8230         37
  43.8416         45
  43.8602         38
  43.8787         36
  43.8973         32
  43.9159         46
  43.9345         33
  43.9530         28
  43.9716         33
  43.9902         29
  44.0088         46
  44.0273         28
  44.0459         36
  44.0645         32
  44.0831         36
  44.1016         39
  44.1202         34
  44.1388         24
  44.1574         22
  44.1759         31
  44.1945         40
  44.2131         27
  44.2317         40
  44.2502         41
  44.2688         33
  44.2874         35
  44.3060         35
  44.3245         45
  44.3431         30
  44.3617         37
  44.3803         32
  44.3988         32
  44.4174         45
  44.4360         30
  44.4546         39
  44.4732         45
  44.4917         43
  44.5103         38
  44.5289         39
  44.5475         34
  44.5660         45
  44.5846         48
  44.6032         39
  44.6218         36
  44.6403         35
  44.6589         53
  44.6775         40
  44.6961         43
  44.7146         42
  44.7332         52
  44.7518         41
  44.7704         30
  44.7889         48
  44.8075         35
  44.8261         31
  44.8447         39
  44.8632         36
  44.8818         40
  44.9004         37
  44.9190         36
  44.9375         42
  44.9561         38
  44.9747         21
  44.9933         29
  45.0118         39
  45.0304         33
  45.0490         35
  45.0676         37
  45.0861         46
  45.1047         40
  45.1233         38
  45.1419         44
  45.1604         27
  45.1790         42
  45.1976         44
  45.2162         39
  45.2347         39
  45.2533         21
  45.2719         32
  45.2905         39
  45.3091         32
  45.3276         33
  45.3462         34
  45.3648         31
  45.3834         29
  45.4019         38
  45.4205         39
  45.4391         30
  45.4577         25
  45.4762         50
  45.4948         27
  45.5134         36
  45.5320         46
  45.5505         40
  45.5691         33
  45.5877         36
  45.6063         34
  45.6248         32
  45.6434         25
  45.6620         39
  45.6806         30
  45.6991         36
  45.7177         38
  45.7363         30
  45.7549         37
  45.7734         28
  45.7920         35
  45.8106         38
  45.8292         30
  45.8477         43
  45.8663         25
  45.8849         32
  45.9035         45
  45.9220         37
  45.9406         42
  45.9592         33
  45.9778         31
  45.9963         31
  46.0149         29
  46.0335         31
  46.0521         29
  46.0707         21
  46.0892         28
  46.1078         27
  46.1264         31
  46.1450         24
  46.1635         36
  46.1821         35
  46.2007         36
  46.2193         25
  46.2378         43
  46.2564         46
  46.2750         36
  46.2936         34
  46.3121         24
  46.3307         30
  46.3493         32
  46.3679         34
  46.3864         24
  46.4050         32
  46.4236         34
  46.4422         29
  46.4607         30
  46.4793         32
  46.4979         23
  46.5165         23
  46.5350         36
  46.5536         18
  46.5722         36
  46.5908         41
  46.6093         41
  46.6279         25
  46.6465         29
  46.6651         32
  46.6836         31
  46.7022         40
  46.7208         29
  46.7394         32
  46.7579         27
  46.7765         35
  46.7951         31
  46.8137         34
  46.8323         30
  46.8508         23
  46.8694         31
  46.8880         32
  46.9066         28
  46.9251         35
  46.9437         38
  46.9623         34
  46.9809         34
  46.9994         36
  47.0180         38
  47.0366         38
  47.0552         31
  47.0737         18
  47.0923         31
  47.1109         39
  47.1295         27
  47.1480         21
  47.1666         30
  47.1852         32
  47.2038         27
  47.2223         26
  47.2409         31
  47.2595         39
  47.2781         29
  47.2966         31
  47.3152         32
  47.3338         29
  47.3524         35
  47.3709         26
  47.3895         33
  47.4081         36
  47.4267         34
  47.4452         37
  47.4638         35
  47.4824         28
  47.5010         32
  47.5195         40
  47.5381         26
  47.5567         32
  47.5753         33
  47.5939         28
  47.6124         42
  47.6310         30
  47.6496         36
  47.6682         32
  47.6867         16
  47.7053         30
  47.7239         23
  47.7425         36
  47.7610         28
  47.7796         23
  47.7982         27
  47.8168         20
  47.8353         42
  47.8539         40
  47.8725         22
  47.8911         37
  47.9096         26
  47.9282         43
  47.9468         33
  47.9654         23
  47.9839         27
  48.0025         41
  48.0211         35
  48.0397         36
  48.0582         34
  48.0768         39
  48.0954         30
  48.1140         35
  48.1325         21
  48.1511         26
  48.1697         26
  48.1883         27
  48.2068         32
  48.2254         27
  48.2440         25
  48.2626         26
  48.2811         26
  48.2997         29
  48.3183         33
  48.3369         25
  48.3555         24
  48.3740         43
  48.3926         30
  48.4112         30
  48.4298         36
  48.4483         35
  48.4669         26
  48.4855         41
  48.5041         31
  48.5226         33
  48.5412         32
  48.5598         26
  48.5784         24
  48.5969         30
  48.6155         22
  48.6341         33
  48.6527         34
  48.6712         37
  48.6898         28
  48.7084         39
  48.7270         32
  48.7455         25
  48.7641         34
  48.7827         38
  48.8013         28
  48.8198         46
  48.8384         32
  48.8570         41
  48.8756         43
  48.8941         38
  48.9127         36
  48.9313         58
  48.9499         56
  48.9684         61
  48.9870         47
  49.0056         32
  49.0242         30
  49.0427         32
  49.0613         33
  49.0799         51
  49.0985         46
  49.1171         42
  49.1356         38
  49.1542         43
  49.1728         28
  49.1914         43
  49.2099         34
  49.2285         34
  49.2471         43
  49.2657         28
  49.2842         43
  49.3028         31
  49.3214         39
  49.3400         25
  49.3585         29
  49.3771         27
  49.3957         38
  49.4143         34
  49.4328         27
  49.4514         37
  49.4700         41
  49.4886         26
  49.5071         36
  49.5257         35
  49.5443         30
  49.5629         32
  49.5814         40
  49.6000         34
  49.6186         32
  49.6372         24
  49.6557         35
  49.6743         37
  49.6929         31
  49.7115         26
  49.7300         32
  49.7486         36
  49.7672         40
  49.7858         32
  49.8043         27
  49.8229         29
  49.8415         30
  49.8601         25
  49.8786         30
  49.8972         23
  49.9158         24
  49.9344         32
  49.9530         29
  49.9715         25
  49.9901         43
  50.0087         32
  50.0273         34
  50.0458         27
  50.0644         31
  50.0830         26
  50.1016         28
  50.1201         27
  50.1387         30
  50.1573         30
  50.1759         26
  50.1944         36
  50.2130         42
  50.2316         33
  50.2502         32
  50.2687         34
  50.2873         32
  50.3059         38
  50.3245         42
  50.3430         41
  50.3616         25
  50.3802         26
  50.3988         23
  50.4173         23
  50.4359         27
  50.4545         24
  50.4731         27
  50.4916         32
  50.5102         22
  50.5288         24
  50.5474         34
  50.5659         21
  50.5845         23
  50.6031         22
  50.6217         34
  50.6402         29
  50.6588         32
  50.6774         42
  50.6960         40
  50.7146         30
  50.7331         30
  50.7517         28
  50.7703         24
  50.7889         18
  50.8074         25
  50.8260         34
  50.8446         29
  50.8632         34
  50.8817         25
  50.9003         35
  50.9189         19
  50.9375         30
  50.9560         25
  50.9746         25
  50.9932         29
  51.0118         45
  51.0303         27
  51.0489         24
  51.0675         30
  51.0861         31
  51.1046         35
  51.1232         30
  51.1418         26
  51.1604         23
  51.1789         28
  51.1975         34
  51.2161         27
  51.2347         26
  51.2532         28
  51.2718         30
  51.2904         28
  51.3090         37
  51.3275         35
  51.3461         32
  51.3647         40
  51.3833         33
  51.4018         29
  51.4204         35
  51.4390         35
  51.4576         25
  51.4762         26
  51.4947         23
  51.5133         26
  51.5319         32
  51.5505         36
  51.5690         43
  51.5876         30
  51.6062         27
  51.6248         28
  51.6433         30
  51.6619         20
  51.6805         34
  51.6991         35
  51.7176         29
  51.7362         31
  51.7548         33
  51.7734         27
  51.7919         32
  51.8105         39
  51.8291         33
  51.8477         34
  51.8662         32
  51.8848         40
  51.9034         32
  51.9220         38
  51.9405         27
  51.9591         35
  51.9777         37
  51.9963         27
  52.0148         29
  52.0334         29
  52.0520         29
  52.0706         38
  52.0891         30
  52.1077         31
  52.1263         33
  52.1449         29
  52.1634         26
  52.1820         33
  52.2006         35
  52.2192         38
  52.2378         30
  52.2563         28
  52.2749         28
  52.2935         36
  52.3121         31
  52.3306         33
  52.3492         28
  52.3678         34
  52.3864         29
  52.4049         18
  52.4235         32
  52.4421         20
  52.4607         26
  52.4792         35
  52.4978         31
  52.5164         33
  52.5350         31
  52.5535         30
  52.5721         35
  52.5907         28
  52.6093         34
  52.6278         35
  52.6464         27
  52.6650         36
  52.6836         26
  52.7021         36
  52.7207         47
  52.7393         26
  52.7579         27
  52.7764         30
  52.7950         25
  52.8136         25
  52.8322         38
  52.8507         34
  52.8693         24
  52.8879         30
  52.9065         30
  52.9250         27
  52.9436         34
  52.9622         30
  52.9808         28
  52.9994         32
  53.0179         37
  53.0365         31
  53.0551         22
  53.0737         43
  53.0922         40
  53.1108         15
  53.1294         29
  53.1480         29
  53.1665         31
  53.1851         34
  53.2037         23
  53.2223         35
  53.2408         35
  53.2594         24
  53.2780         28
  53.2966         25
  53.3151         30
  53.3337         39
  53.3523         24
  53.3709         41
  53.3894         39
  53.4080         29
  53.4266         17
  53.4452         27
  53.4637         31
  53.4823         28
  53.5009         30
  53.5195         35
  53.5380         30
  53.5566         25
  53.5752         29
  53.5938         24
  53.6123         24
  53.6309         26
  53.6495         23
  53.6681         31
  53.6866         30
  53.7052         25
  53.7238         39
  53.7424         28
  53.7610         39
  53.7795         28
  53.7981         31
  53.8167         21
  53.8353         18
  53.8538         21
  53.8724         30
  53.8910         38
  53.9096         28
  53.9281         41
  53.9467         40
  53.9653         41
  53.9839         32
  54.0024         41
  54.0210         37
  54.0396         35
  54.0582         32
  54.0767         31
  54.0953         29
  54.1139         36
  54.1325         38
  54.1510         33
  54.1696         39
  54.1882         36
  54.2068         24
  54.2253         21
  54.2439         30
  54.2625         34
  54.2811         23
  54.2996         30
  54.3182         24
  54.3368         36
  54.3554         26
  54.3739         27
  54.3925         36
  54.4111         24
  54.4297         29
  54.4482         27
  54.4668         22
  54.4854         20
  54.5040         28
  54.5225         26
  54.5411         28
  54.5597         26
  54.5783         24
  54.5969         29
  54.6154         31
  54.6340         32
  54.6526         36
  54.6712         27
  54.6897         26
  54.7083         33
  54.7269         39
  54.7455         34
  54.7640         23
  54.7826         31
  54.8012         24
  54.8198         28
  54.8383         22
  54.8569         18
  54.8755         31
  54.8941         28
  54.9126         27
  54.9312         30
  54.9498         25
  54.9684         37
  54.9869         28
  55.0055         29
  55.0241         25
  55.0427         30
  55.0612         27
  55.0798         20
  55.0984         24
  55.1170         26
  55.1355         29
  55.1541         33
  55.1727         21
  55.1913         26
  55.2098         23
  55.2284         28
  55.2470         27
  55.2656         27
  55.2841         25
  55.3027         36
  55.3213         25
  55.3399         36
  55.3585         38
  55.3770         23
  55.3956         32
  55.4142         25
  55.4328         26
  55.4513         25
  55.4699         25
  55.4885         31
  55.5071         25
  55.5256         41
  55.5442         28
  55.5628         23
  55.5814         37
  55.5999         21
  55.6185         29
  55.6371         21
  55.6557         33
  55.6742         28
  55.6928         28
  55.7114         23
  55.7300         33
  55.7485         28
  55.7671         24
  55.7857         31
  55.8043         35
  55.8228         16
  55.8414         21
  55.8600         20
  55.8786         25
  55.8971         29
  55.9157         28
  55.9343         34
  55.9529         27
  55.9714         31
  55.9900         20
  56.0086         29
  56.0272         27
  56.0457         40
  56.0643         27
  56.0829         24
  56.1015         35
  56.1201         20
  56.1386         36
  56.1572         40
  56.1758         28
  56.1944         27
  56.2129         35
  56.2315         31
  56.2501         30
  56.2687         22
  56.2872         36
  56.3058         25
  56.3244         38
  56.3430         35
  56.3615         17
  56.3801         28
  56.3987         33
  56.4173         25
  56.4358         32
  56.4544         20
  56.4730         32
  56.4916         23
  56.5101         25
  56.5287         24
  56.5473         17
  56.5659         26
  56.5844         35
  56.6030         34
  56.6216         29
  56.6402         40
  56.6587         30
  56.6773         24
  56.6959         25
  56.7145         23
  56.7330         34
  56.7516         31
  56.7702         36
  56.7888         25
  56.8073         30
  56.8259         27
  56.8445         29
  56.8631         20
  56.8817         32
  56.9002         18
  56.9188         33
  56.9374         22
  56.9560         25
  56.9745         31
  56.9931         31
  57.0117         28
  57.0303         26
  57.0488         27
  57.0674         29
  57.0860         31
  57.1046         24
  57.1231         24
  57.1417         27
  57.1603         24
  57.1789         24
  57.1974         16
  57.2160         32
  57.2346         28
  57.2532         29
  57.2717         24
  57.2903         25
  57.3089         25
  57.3275         28
  57.3460         30
  57.3646         21
  57.3832         36
  57.4018         36
  57.4203         31
  57.4389         21
  57.4575         22
  57.4761         39
  57.4946         27
  57.5132         26
  57.5318         21
  57.5504         34
  57.5689         34
  57.5875         35
  57.6061         27
  57.6247         20
  57.6433         21
  57.6618         29
  57.6804         31
  57.6990         31
  57.7176         27
  57.7361         21
  57.7547         27
  57.7733         29
  57.7919         30
  57.8104         36
  57.8290         22
  57.8476         36
  57.8662         22
  57.8847         27
  57.9033         25
  57.9219         25
  57.9405         28
  57.9590         27
  57.9776         27
  57.9962         23
  58.0148         23
  58.0333         19
  58.0519         28
  58.0705         24
  58.0891         33
  58.1076         30
  58.1262         27
  58.1448         23
  58.1634         26
  58.1819         30
  58.2005         24
  58.2191         22
  58.2377         23
  58.2562         21
  58.2748         20
  58.2934         27
  58.3120         33
  58.3305         23
  58.3491         35
  58.3677         24
  58.3863         28
  58.4049         28
  58.4234         30
  58.4420         24
  58.4606         23
  58.4792         24
  58.4977         24
  58.5163         32
  58.5349         27
  58.5535         26
  58.5720         19
  58.5906         23
  58.6092         31
  58.6278         31
  58.6463         30
  58.6649         26
  58.6835         33
  58.7021         28
  58.7206         27
  58.7392         32
  58.7578         25
  58.7764         27
  58.7949         31
  58.8135         19
  58.8321         29
  58.8507         22
  58.8692         25
  58.8878         26
  58.9064         32
  58.9250         29
  58.9435         25
  58.9621         30
  58.9807         27
  58.9993         34
  59.0178         24
  59.0364         31
  59.0550         23
  59.0736         21
  59.0921         27
  59.1107         17
  59.1293         28
  59.1479         26
  59.1664         30
  59.1850         22
  59.2036         30
  59.2222         26
  59.2408         21
  59.2593         21
  59.2779         29
  59.2965         23
  59.3151         19
  59.3336         38
  59.3522         31
  59.3708         29
  59.3894         25
  59.4079         28
  59.4265         25
  59.4451         25
  59.4637         26
  59.4822         32
  59.5008         29
  59.5194         27
  59.5380         31
  59.5565         31
  59.5751         25
  59.5937         27
  59.6123         32
  59.6308         35
  59.6494         26
  59.6680         22
  59.6866         24
  59.7051         25
  59.7237         23
  59.7423         21
  59.7609         20
  59.7794         24
  59.7980         18
  59.8166         21
  59.8352         29
  59.8537         25
  59.8723         27
  59.8909         38
  59.9095         21
  59.9280         31
  59.9466         27
  59.9652         24
  59.9838         24
  60.0024         26
